accel_x_mean,accel_x_std,accel_x_max,accel_x_min,accel_x_median,accel_x_q1,accel_x_q3,accel_x_iqr,accel_x_sum_abs,accel_x_sum_squares,accel_x_acf_lag1,accel_x_acf_lag2,accel_x_acf_lag3,accel_x_acf_lag4,accel_y_mean,accel_y_std,accel_y_max,accel_y_min,accel_y_median,accel_y_q1,accel_y_q3,accel_y_iqr,accel_y_sum_abs,accel_y_sum_squares,accel_y_acf_lag1,accel_y_acf_lag2,accel_y_acf_lag3,accel_y_acf_lag4,accel_z_mean,accel_z_std,accel_z_max,accel_z_min,accel_z_median,accel_z_q1,accel_z_q3,accel_z_iqr,accel_z_sum_abs,accel_z_sum_squares,accel_z_acf_lag1,accel_z_acf_lag2,accel_z_acf_lag3,accel_z_acf_lag4,gyro_x_mean,gyro_x_std,gyro_x_max,gyro_x_min,gyro_x_median,gyro_x_q1,gyro_x_q3,gyro_x_iqr,gyro_x_sum_abs,gyro_x_sum_squares,gyro_x_acf_lag1,gyro_x_acf_lag2,gyro_x_acf_lag3,gyro_x_acf_lag4,gyro_y_mean,gyro_y_std,gyro_y_max,gyro_y_min,gyro_y_median,gyro_y_q1,gyro_y_q3,gyro_y_iqr,gyro_y_sum_abs,gyro_y_sum_squares,gyro_y_acf_lag1,gyro_y_acf_lag2,gyro_y_acf_lag3,gyro_y_acf_lag4,gyro_z_mean,gyro_z_std,gyro_z_max,gyro_z_min,gyro_z_median,gyro_z_q1,gyro_z_q3,gyro_z_iqr,gyro_z_sum_abs,gyro_z_sum_squares,gyro_z_acf_lag1,gyro_z_acf_lag2,gyro_z_acf_lag3,gyro_z_acf_lag4,prediction,prediction_label,decision_score,confidence_category,evaluation_timestamp
0.5680243438720705,1.703046545924941,3.3877953491210935,-1.9632453613281249,1.0103531005859374,-0.6889315277099609,1.4903905334472658,2.179322061157227,12.62223115234375,25.78415354254535,0.4089327109988862,0.1668820601985239,-0.114901239517978,-0.1107057286465182,-1.3102268585205077,1.746885870191668,0.4285620971679687,-5.585672473144531,-0.8990227233886717,-1.5035586425781249,-0.2603694305419922,1.2431892120361328,11.3389390625,38.14643731411056,0.0867370817333999,0.0509875316440166,-0.1965976878075249,-0.1310643718808711,8.991125059509276,2.1435476586224405,13.409923498535155,6.143521459960938,8.646659295654295,7.795520605468749,10.053851321411132,2.2583307159423835,71.92900047607421,683.4810112041716,0.128586741661873,0.0429284213629167,-0.4875488463852636,-0.3954542084941663,-0.1862572743731352,0.1721750136930725,-0.0307764165809687,-0.6027381325207898,-0.177197550011638,-0.1995803984341607,-0.0556573507649336,0.143923047669227,1.4900581949850822,0.5146880607769528,-0.2989101040555949,0.0853579672041722,-0.0325561635399291,0.1043498984084109,-0.0537921133963901,0.2368481797751322,0.4283384385619671,-0.3671852991218605,-0.0609532925791913,-0.2141359114708309,0.0412683767790262,0.2554042882498571,1.5556079653653274,0.4719252138115476,0.0266335764598422,0.2163712527533256,-0.3032735877372618,0.1998342264421748,-0.0444326187435197,0.1817780505904513,0.1241715162487568,-0.4724379792039612,0.0317090352652403,-0.0717450230686218,0.0578889740451553,0.1296339971137772,1.0029647793139929,0.2801401382789734,-0.1202258266439542,0.0432920743279866,-0.1178666823258034,-0.0855380350496068,1,normal_operation,1.0109288464166313,strong_normal,2025-04-03 00:47:01.133636
-0.4327519500732421,1.7677198269464276,3.1579519897460937,-2.5234885498046875,-0.7254431030273437,-1.7926584930419922,0.0933738647460937,1.886032357788086,12.5647703125,26.496861094973617,-0.169320048400705,-0.3897850676670885,-0.2061751112421689,0.1726639775093104,-1.8088193542480469,1.4128493158029949,-0.1939303344726562,-4.491522314453125,-1.7393875061035156,-2.740762350463867,-0.4207809417724609,2.319981408691406,14.470554833984377,42.14376516373849,0.4413924610875038,-0.0745181211156603,-0.1787516879849928,-0.2511161699808964,8.423998541259765,1.338702395322457,10.47702646484375,6.5218053222656245,8.257601525878906,7.795520605468749,9.150638745117188,1.3551181396484395,67.39198833007812,582.0470042111099,0.0398214688389099,-0.050324213196265,-0.2410809385510241,-0.2387083128759298,-0.0681644334772212,0.1220091762306576,0.1601439512135255,-0.2099724352017605,-0.0470306279354197,-0.1989808578514145,-0.0005662327725935,0.198414625078821,0.8746630946063183,0.1562610326060334,-0.1225593935478055,0.1394826511460042,-0.1294986342478547,-0.3834536743248043,-0.189138399951332,0.1756670698632587,0.0933950996677881,-0.5010826959351659,-0.205509188641317,-0.283882465930299,-0.098824272722656,0.185058193207643,1.7486600330095858,0.5330580301639445,-0.2634301521328436,-0.0804237797931989,-0.0677935966993207,-0.1983196331563168,0.1931686449797922,0.2908223177930803,0.750091884635731,-0.1666722820034279,0.0796722818849319,0.02364854520832,0.2854479330074695,0.2617993877991494,1.8786937238451935,0.9751339674389472,-0.4326469416264039,0.3531304084224391,-0.1353044537550908,-0.2022235495818382,-1,potential_anomaly,-0.1473659630550288,borderline,2025-04-03 00:47:01.133636
0.2023100402832031,1.939136704087264,3.1579519897460937,-2.5234885498046875,-0.3746925598144531,-1.1851298217773436,2.067393133544922,3.2525229553222657,13.546392993164062,30.409444076302464,-0.4868327757132474,0.0543567157745825,-0.1882039723333037,0.3360819893984219,-2.6207529922485353,1.8766761283539453,1.7334020019531249,-4.651933825683593,-2.778471026611328,-3.8630443786621096,-2.260724917602539,1.6023194610595706,24.43282794189453,83.12207629690563,0.2187349726844745,-0.2499720640861308,-0.629946220759128,-0.0672194417277816,8.530540515136718,1.8666732993392892,12.217611071777345,6.342240197753906,8.291120349121094,7.114370233154297,9.212887988281247,2.0985177551269523,68.24432412109374,610.036725494842,0.1432820413694399,-0.1317326100501539,-0.5999784084342823,-0.0962473858782935,0.0370216309845743,0.1989021774049356,0.3296140892697688,-0.2933751918237796,0.0318422665058507,-0.0535922665354747,0.1815941809517764,0.2351864474872511,1.3026018394464547,0.32746141869746,-0.1689235615953357,-0.0170568355225334,-0.2414396824098535,-0.1136762784543896,-0.1960497705579889,0.1864505404751863,0.0933950996677881,-0.5010826959351659,-0.2111049007469476,-0.3073644720878563,-0.0439330015912312,0.2634314704966251,1.7551883637994878,0.5855945326346338,-0.5060006429790315,0.1926676711113109,-0.3294443069357485,0.3957115966508414,0.3614063940603906,0.3976276272473016,0.824035223174422,-0.3625222057005015,0.3822404293108191,0.1300669986457605,0.7389004604244696,0.608833461778709,3.6162955638841288,2.309778492944427,-0.189387709027624,-0.103526019473453,-0.2423495882706158,0.1698048103068025,-1,potential_anomaly,-0.9399298814789098,strong_anomaly,2025-04-03 00:47:01.133636
1.7043723068237302,2.0578105598855996,4.955997436523437,-1.66636435546875,1.7549498168945312,0.3286041778564452,2.9041666137695312,2.5755624359130858,17.61414161376953,57.115754085154634,-0.2870047011882267,0.5780784826939744,-0.4469189231371123,0.1730335306008609,-2.3235727111816407,2.0069951473138334,1.7334020019531249,-4.651933825683593,-2.518700146484375,-3.883993643188477,-1.5286977600097655,2.355295883178711,22.055385693359376,75.41615732391419,-0.1167256443698751,0.0290560579022116,-0.3341439098650636,0.0137954993724224,8.173505192565917,1.802118880749162,12.217611071777345,6.189011291503906,7.888894470214844,7.069478952026367,8.522160809326172,1.4526818572998046,65.38804154052734,560.430556746037,-0.1281169850114172,0.130488140598904,-0.2499440599491464,-0.0098670293235766,-0.0755254595209378,0.2822802890079431,0.3296140892697688,-0.4612465549926999,-0.0173866768996381,-0.332411945322584,0.1058522206648469,0.4382641659874309,1.972754979716033,0.6830900527860535,-0.1009231176811545,-0.0955522035102698,-0.0212432070177205,-0.0446559209970428,-0.0176364854757823,0.2474676415410926,0.4553843804058487,-0.3944977034469625,-0.0490290965445735,-0.1608434152267293,0.0550578101821875,0.2159012254089168,1.5562741215683786,0.4924102338387855,-0.2159606127044187,0.3775829699786435,-0.1482777773014856,0.0536265345346747,-0.0355227795277089,0.5691675202160593,0.824035223174422,-0.9515375204384352,-0.0790727413021857,-0.4072212869252418,0.3113947171163165,0.7186160040415583,3.74286524246387,2.6017082714741795,0.0926564141933713,-0.0409393562842049,-0.041361674103531,-0.2078783822007941,1,normal_operation,0.11901331422037065,weak_normal,2025-04-03 00:47:01.133636
1.883937431335449,1.645405156804469,4.955997436523437,0.181959326171875,1.4101847778320311,0.5225345123291015,2.530671154785156,2.0081366424560545,15.071499450683593,50.0526270018044,-0.3977293802205326,0.3241520368163719,-0.2452456632487902,-0.1359992588240186,-2.2143372604370115,1.130850052578471,-0.5482721801757812,-4.575319372558593,-1.9476830505371092,-2.740762350463867,-1.696890426635742,1.0438719238281249,17.714698083496092,49.45689075501136,-0.6564328704383003,0.3441498338812493,-0.3189034835245931,0.2016142062645997,8.284237019348144,1.044989789143177,9.459490759277344,6.189011291503906,8.580818749999999,7.589619262695312,9.080608346557618,1.4909890838623063,66.27389615478515,557.7646932172138,0.2300483443738483,-0.2807723001931969,-0.3382541543927826,-0.0531546154656887,-0.0603370980913688,0.3101175313199661,0.5214670757485348,-0.4612465549926999,-0.1100490047440699,-0.2341872131826742,0.0970589587845701,0.3312461719672443,2.1038545204765233,0.7985075891046212,-0.2362070898000762,0.1310740201666954,0.1567802115049605,-0.4670882826857677,0.0980082313739182,0.18577246433229,0.4553843804058487,-0.1489525270022641,0.0542251149283734,-0.0445991577942825,0.2200313938678347,0.2646305516621173,1.266629404481686,0.3529361753690836,-0.753562857421909,0.373969691577661,-0.099863252327378,-0.1189624687712845,-0.2135696786982374,0.4619308586481435,0.6344471677860304,-0.9515375204384352,-0.2914433388349309,-0.4869601844304789,0.0477300919486236,0.5346902763791026,3.3912679984934093,2.0719370066454363,-0.3453185098436004,-0.0026568223106607,0.175779759286088,-0.3834392858151506,-1,potential_anomaly,-0.0797801938824998,borderline,2025-04-03 00:47:01.133636
2.555211721801758,2.2805093650887627,6.224924316406249,0.181959326171875,1.618480322265625,0.6105214233398437,4.340687609863281,3.730166186523437,20.441693774414063,93.83863925992524,0.0192653644529321,-0.1668550555984148,0.1640075996911379,-0.3439731833634128,-2.7252000396728513,2.6698377997054212,-0.7254431030273437,-9.619902270507811,-1.8004396484375,-2.254140863037109,-1.5532383270263672,0.7009025360107417,21.80160031738281,116.43799306375035,-0.1920402111165923,-0.3030020307984749,-0.0107352804806365,0.0909154123807587,6.674435678100585,6.3959555586266035,9.813832604980467,-10.168174450683592,9.176974963378909,8.61792887573242,9.402029919433597,0.784101043701174,73.73183432617186,683.6507130322285,-0.199060332009544,-0.2254335660160746,0.0356280587016391,-0.0682011673485464,0.1007394718064284,0.2747555944725903,0.5442496178928883,-0.1624088823038998,-0.0538920368268477,-0.1039869832963033,0.3100290969000613,0.4140160801963647,1.804617154065892,0.6851126229905974,-0.6360548759168975,0.2884277926356966,-0.3527304778725835,0.4115810159615765,0.2959232393004508,0.5026468792882746,1.5915804003300962,-0.049295559025794,0.0991906586343342,0.0563568147781375,0.2424808579106625,0.186124043132525,2.465977032455194,2.721795590530504,-0.0471581648057895,-0.3153421992515754,0.0237116250947634,-0.0825870209951754,-0.1968325040965742,0.4114688597857475,0.6344471677860304,-0.7206477804608648,-0.3352098013753994,-0.4719383620516728,-0.0044299387502909,0.4675084233013819,3.257370601680104,1.6643972579384885,-0.4668498531701737,0.2770241118863735,-0.280712826395168,-0.1218085237026811,-1,potential_anomaly,-1.051635425048365,strong_anomaly,2025-04-03 00:47:01.133636
3.511994560241699,2.77841414633246,7.867346655273437,-0.7637503295898437,3.142389678955078,1.6490063934326171,5.9376201171875,4.2886137237548825,29.62345714111328,160.42952767766096,-0.1556858572775658,-0.2741402317487215,-0.1553700430797959,0.1599544627015423,-1.5942390304565428,3.3852372061838465,2.250549560546875,-9.619902270507811,-1.1863269226074218,-1.96623811340332,0.4076128326416015,2.3738509460449215,19.91257520751953,112.01143222689944,0.1680953669952323,-0.0363973929727645,0.0982886340740691,-0.2326157132777118,7.772177139282226,6.92464460021557,12.612654345703124,-10.168174450683592,9.598354455566405,9.130886581420896,10.73200894165039,1.6011223602294926,82.51376601562498,866.8595225894073,-0.0665108063528629,0.0002300374541434,-0.1580422806804737,0.0181977959365398,-0.0919628638312279,0.5031314975283225,0.6817442582026706,-0.9271562034067587,-0.0792725881631011,-0.2993372898410885,0.104086906726761,0.4034241965678496,3.1876906628409407,2.092787777033067,0.2251496267360472,-0.1750193951859198,-0.5816146867371734,-0.1857782489900678,0.2430470906832561,0.5624888615604988,1.5915804003300962,-0.3342771826911277,0.1256370598954696,-0.0208506891555047,0.3309130938657187,0.3517637830212235,3.229791734873781,3.003724861353768,0.0830045709660201,-0.0888700483131442,-0.003301084684958,0.1130773224234394,-0.2370350309507184,0.5912647491534267,0.953003064085148,-1.044666157625003,-0.3607901995725682,-0.6196251922681396,0.0184525268245202,0.6380777190926599,4.399162333709982,3.246236875914182,0.202263448500094,-0.4574817760756015,-0.164889813762602,0.1604892156309285,-1,potential_anomaly,-1.204464220868461,strong_anomaly,2025-04-03 00:47:01.133636
2.957437600708007,2.240794252796501,7.867346655273437,-0.7637503295898437,2.7317840942382814,2.2128408843994136,3.2836475769042965,1.070806692504883,25.187001464843743,110.1407683635789,-0.2026529590548274,-0.4546324649563408,0.1466875261276905,0.0493892640066361,-0.4228758682250976,2.2531291517539755,2.250549560546875,-3.4548329956054684,0.2250549560546874,-2.797624639892578,1.4401122985839845,4.237736938476562,15.593435412597657,42.04331979528576,-0.2100216798269855,0.2857523647051431,-0.3132000284014968,-0.2554350061170486,9.42267990875244,2.173351289934961,12.612654345703124,5.882553479003906,9.07761559448242,8.261791378784178,10.73200894165039,2.470217562866212,75.38143927001953,748.0828199381509,-0.1120019515008325,-0.0008937544635103,0.2913694184989429,-0.3605050548701159,-0.1780802069806809,0.4589963339110962,0.6817442582026706,-0.9271562034067587,-0.2163009191307476,-0.3604904292811951,0.0471971669861824,0.4076875962673776,3.12467228603229,1.93912155729687,0.3594438228369894,-0.308095464238643,-0.4757680862208883,-0.0291283226481386,0.0445325421739774,0.2599749646587233,0.3819739668295987,-0.3342771826911277,0.101189127243488,-0.1798288670136904,0.250075038625447,0.4299039056391375,1.915598777494234,0.5565610364942521,-0.0598925674781415,-0.7346049286703062,0.1026920251346884,0.287316056653391,-0.022282924992065,0.5599221955367363,0.953003064085148,-1.044666157625003,0.0548246555111195,-0.2328215929664192,0.2293908885207051,0.4622124814871243,3.3947320107492756,2.5120751504070498,0.2818504747134296,-0.4628178915931299,-0.3122990570311649,0.0457670491615759,-1,potential_anomaly,-0.11436941239258358,borderline,2025-04-03 00:47:01.133636
1.7474679367065429,1.5303684935777586,3.6679169433593746,-0.6560112548828124,2.138022082519531,0.5913678100585937,3.053205667114258,2.461837857055664,16.105794567871094,43.16537532762304,0.4356753915783358,0.0023033912893732,-0.156800955358171,-0.3986378572081158,-1.2348095062255855,1.8655159163904071,2.2266075439453124,-3.4548329956054684,-1.1935095275878906,-2.8622680847167965,-0.2573766784667968,2.6048914062499997,14.930241552734374,40.039233207768135,-0.5670222467390496,0.2943353551995204,-0.2030759613764227,0.0130747358210032,8.439860127258301,1.1606597497580178,9.900023864746093,5.882553479003906,8.896853369140624,8.073247998046876,9.03272431335449,0.9594763153076152,67.51888101806641,580.6269601791427,-0.1014512628425612,-0.2987547098006202,0.2681359694365512,0.040808675866453,-0.1392266464377156,0.1554763909993927,0.1580122513637614,-0.3150918840432511,-0.2079739665926067,-0.2544383617554329,-0.0245145482722867,0.2299238134831461,1.4503552852832264,0.3484557378919097,-0.1974770539885955,-0.2511643045849064,0.124189612984036,-0.1777546916853167,0.0566565850695105,0.1821039540527002,0.3819739668295987,-0.1500183769271462,0.0784065850991345,-0.1401259573118347,0.1511175346621807,0.2912434919740155,1.3264502315156903,0.2909745497069331,0.2367631970883422,-0.1845846967539818,-0.056707700901359,-0.4307062430584184,-0.0543083844537548,0.1435490871221168,0.2063751917052837,-0.223828484225227,-0.1101822359846801,-0.1477867536469244,0.0070279479421909,0.1548147015891153,1.1480536003385595,0.1884459282845595,0.0656225125446255,-0.0636981350643708,0.1178487906149191,-0.1812389252105201,1,normal_operation,0.571360067776062,strong_normal,2025-04-03 00:47:01.133636
1.0019733947753906,0.9673278422638092,2.176329309082031,-0.6560112548828124,1.2198457458496097,0.5913678100585937,1.6615759521484377,1.0702081420898435,10.141838232421875,15.517390706051822,0.2009339407221586,-0.0967744529135826,0.146573712897747,-0.2384024111774245,-1.0226233840942385,0.7632542887189911,-0.4141968872070312,-2.664746447753906,-0.7098807922363282,-1.1121066711425782,-0.4824316345214843,0.6296750366210939,8.180987072753906,13.02652555955428,0.2065290378732542,-0.3881682614451758,-0.2269482347456977,-0.2193607499838182,9.156624249267578,1.1172266978616774,11.686098303222655,7.750030773925781,8.917204083251953,8.705317236328124,9.20510683288574,0.4997895965576173,73.25299399414062,680.7357050935195,-0.3088840662406461,-0.2685868409632077,-0.0837019205378607,0.252915020103191,-0.2012624428468651,0.1097225988717286,-0.0361056662053788,-0.3264165394951227,-0.2083736603144375,-0.316923813601642,-0.0990907352038764,0.2178330783977655,1.6100995427749214,0.4203649568308314,0.0500926975572593,-0.6629192987964184,0.085169987930294,0.4359109239074056,0.0408187213419666,0.1330230196237591,0.2049096480585709,-0.1500183769271462,0.1005229710404367,-0.0893648546393279,0.1357293263716964,0.2250941810110243,1.0643843812353204,0.1548903340945289,0.1978978042060146,-0.3075682305631098,-0.1692627521447415,0.1068338501793514,-0.2244779865232019,0.2223356823574178,0.0002664624812205,-0.6858744266615885,-0.1531493110814871,-0.2850815470957913,-0.0804383615184408,0.2046431855773505,1.7963568171480566,0.7985881766627957,0.3336771201201416,-0.3471588837323384,-0.2343999266653271,0.0419798417007692,1,normal_operation,0.22412990332331129,weak_normal,2025-04-03 00:47:01.133636
1.4113818786621093,0.3847464189534643,2.176329309082031,0.8667010009765624,1.389834063720703,1.1611878051757811,1.581370196533203,0.4201823913574218,11.291055029296874,17.1202289145064,-0.1037360717155386,-0.0524894237005914,-0.0224002149142763,0.0700649583240558,-1.3865420364379883,1.0052236349221575,-0.4141968872070312,-3.1124621582031247,-0.7912836486816406,-1.9416975463867183,-0.7176619476318359,1.2240355987548828,11.092336291503909,23.463787000125745,0.4041574110948797,-0.2991488478536012,-0.4054514701058143,-0.2149162161163197,8.046013954162596,2.6582213411923137,11.686098303222655,1.7357962036132812,8.678981018066406,7.717709051513672,9.041104019165038,1.3233949676513663,64.36811163330077,574.435849994796,-0.1123126591300266,0.0233685734487651,-0.5456498240037069,0.0730234192018769,-0.1675216311623183,0.1640209410512393,0.2078407353519965,-0.3264165394951227,-0.2250941810110244,-0.272357963617512,-0.0990907352038764,0.1732672284136355,1.7558545200025395,0.4397309280849434,-0.3172495779974219,-0.3481524310374306,0.046050919539584,0.1683528556508655,0.1346801303518906,0.2096775135349499,0.6268529870712458,-0.0909969373368036,0.1001232773186059,0.0148552833280433,0.1733338440339406,0.1584785607058973,1.3979954077233967,0.4968271775504111,0.1366057660026801,-0.2327780079025871,-0.611118316771318,0.0187453769090784,-0.109582695401934,0.3017668482696273,0.3545283312638863,-0.6858744266615885,-0.0122572741361433,-0.18086140912842,0.0083602603482934,0.1892216694767134,1.6515344586047105,0.8245727827690987,-0.0817965168240366,-0.3217001272864784,-0.0145218972215292,-0.0839193368238027,1,normal_operation,0.41742006924775055,weak_normal,2025-04-03 00:47:01.133636
1.8677765701293945,1.7287186474635965,6.198588098144531,0.1915361328124999,1.381454357910156,1.006761798095703,1.7992425476074216,0.7924807495117185,14.942212561035156,51.81645982410152,-0.3211292616478019,0.0485796777586297,-0.1529958950113364,-0.0302241059231412,-1.9321207397460936,0.9308303814651296,-0.7302315063476562,-3.1124621582031247,-1.9955670837402344,-2.8215666564941406,-1.0223241088867183,1.799242547607422,15.456965917968748,36.796286016124085,-0.1910179353507019,0.0805362411844873,-0.3189321817484156,0.1131585998385751,7.831433630371093,2.3701051641458726,9.24401260986328,1.7357962036132812,8.75918677368164,8.003217599487304,9.18176336669922,1.178545767211915,62.65146904296874,535.5900095681463,0.0031161596667659,0.0984441141062923,-0.0930495735976196,-0.1506661285561912,-0.1104320445608244,0.1573227897776901,0.2078407353519965,-0.2745895868977338,-0.1524831548784358,-0.2456784076853086,-0.0110915007808036,0.234586906904505,1.3023353769652344,0.2955655731945534,-0.3370902919188374,0.0372206230638979,-0.2692969872687907,0.2448362256894218,0.1408087674199623,0.2429749703085304,0.6268529870712458,-0.1120474733532237,0.0691470138767218,-0.0148552833280434,0.1957500002666158,0.2106052835946592,1.532558960739753,0.6309115614300822,-0.0253553241519111,-0.2399656111851417,-0.194340780942904,-0.2034339321874716,-0.0643173814046002,0.4545484170844651,0.3545283312638863,-1.2041439526354771,0.0269793262235764,-0.0351064319008019,0.1337641655726951,0.1688705974734971,2.100523739461267,1.6860079121979012,-0.3278006542340723,-0.0736170482370746,0.0158842917182106,0.1177188952985093,1,normal_operation,0.5436083845419164,strong_normal,2025-04-03 00:47:01.133636
2.3903110824584957,3.037729850049592,8.480262280273436,-0.469263525390625,1.4018050720214843,0.0718260498046874,3.2034418212890623,3.131615771484375,20.635624108886716,119.5311177024498,-0.3233454736305778,0.1089633668560427,-0.3583624922930206,0.0702099791603996,-1.118092175292969,1.1413475975010714,0.5889736083984375,-2.7748797241210936,-0.9433154541015624,-2.15777424621582,-0.4321533996582031,1.725620846557617,10.644620581054689,20.42243560618264,-0.1425752072007058,-0.1523235961285865,0.3555821531272071,-0.2380761961756701,9.23114377593994,0.6678835031093878,10.345345373535157,8.130708837890625,9.10993731689453,8.927379440307616,9.464877713012694,0.5374982727050774,73.84915020751953,685.2806702864029,-0.2250014356417843,0.2872899420141266,-0.4819723298618915,0.0472985739358525,-0.1484862176601282,0.1394568696406578,0.001598774887323,-0.4168805518694853,-0.1018552834465392,-0.2534058196407033,-0.0283116386296789,0.2250941810110244,1.191087291055672,0.3319710025998591,-0.1470695025599203,-0.4013853895373435,0.1492837345221672,-0.0666077893321661,0.0776238515605493,0.2016338618698116,0.4392634002920079,-0.1120474733532237,-0.0179862174823843,-0.0665823124949744,0.1668721288643432,0.2334544413593177,1.2319892819230196,0.3734534126690279,-0.1648637160065069,-0.1592894210566769,-0.1954527817302907,-0.1811079474861465,-0.2889452530734887,0.5706029726726396,0.3092297094563999,-1.271159266662435,-0.084934915889037,-0.4576160036860704,0.095926493239383,0.5535424969254534,3.4389647826318805,3.272616893572444,-0.2828312298014195,-0.1239623570381633,0.0720696992231808,-0.2403345941480122,1,normal_operation,0.32944741523009213,weak_normal,2025-04-03 00:47:01.133636
2.22151986541748,2.5883879128037437,8.480262280273436,-0.469263525390625,1.867477294921875,1.1115081207275392,2.2589292663574216,1.1474211456298824,19.285294372558592,93.07921999674416,-0.2971615009993958,0.0652152405738858,-0.2600362777704734,-0.0045775957671043,-1.2398971847534177,1.2755632819585758,0.5889736083984375,-3.258508459472656,-1.2641384765624997,-2.1619640991210938,-0.3064578125,1.8555062866210936,11.61906065673828,25.31525372032307,-0.3185020988228921,-0.1093974172271647,0.5251901752904512,-0.323268350697603,9.299977073669432,0.6969121070920365,10.345345373535157,8.010998754882811,9.287108239746091,8.927379440307616,9.701903677368165,0.7745242370605467,74.39981658935547,695.8020804463083,-0.3561365656915101,0.2853214190677054,-0.1757592453704224,0.2244414069998876,-0.1924691809665883,0.1555343200157771,-0.0310428790621892,-0.457649311496223,-0.1299004595949978,-0.2889785608836412,-0.0797055896950844,0.2092729711885568,1.539753447732707,0.4898824825977561,-0.0876790743043344,-0.3947823649316316,-0.2381924057100707,0.2047019275105182,0.0386870214922025,0.1569350195028568,0.3813078106265474,-0.0872664625997164,-0.0522932619395247,-0.0620191425040732,0.0869666923083433,0.1489858348124166,0.9506049017541632,0.2090022878264016,-0.0518855907497498,0.0040940458774853,-0.4094475880020803,-0.2462653673787268,-0.1992806281427876,0.4538672235831376,0.3130934154340973,-1.271159266662435,-0.1559471671343024,-0.2451787905330201,0.1002232007490636,0.3454019912820838,2.6981990848388673,1.9656658031683985,-0.0137133054410323,-0.1338670779624689,-0.3072397053091583,-0.2184879766712382,1,normal_operation,0.5799756769426452,strong_normal,2025-04-03 00:47:01.133636
0.7472901931762695,2.3798983028628,2.5857377929687497,-4.908113403320312,1.844732379150391,0.8152256652832031,2.096123553466797,1.2808978881835935,17.906234216308594,49.778868518293294,0.2444550405944464,-0.3491223637851732,-0.289403360969269,-0.1454512158756964,-1.6627730529785154,1.224260217482058,0.3687070556640625,-3.258508459472656,-1.8962077148437495,-2.586336343383789,-0.5674257934570313,2.018910549926758,14.039598535156248,34.10901844656568,-0.3498323198424308,-0.2619639732667871,0.3189684144604117,-0.251331880025624,9.27004955291748,0.6377957719029367,10.43153663330078,8.010998754882811,9.287108239746091,9.096769207763671,9.54448491821289,0.4477157104492182,74.16039642333985,690.7248172816226,-0.7409551911329039,0.3663308735538287,-0.1897145859456797,0.0757031178613466,-0.0187522971158932,0.2938882971404821,0.6463047482003429,-0.457649311496223,-0.0632182236695655,-0.1505179940794346,0.0165872894559766,0.1671052835354112,1.6480704463488438,0.6937758387460407,0.2031508873031974,-0.1496491762143721,-0.0978166830919633,-0.4316832894522621,0.0074609494741742,0.1113177910803932,0.1991807047123299,-0.2042434918555196,0.0367052067881249,-0.060820061338581,0.0579222818553079,0.1187423431938889,0.7223797865887978,0.0995785310245941,-0.2496626552967417,-0.056403712080951,0.1836942181553046,-0.4314919875261246,0.0316590735500116,0.2443394112646648,0.4258070449903723,-0.354395100023276,0.0596209801730887,-0.1461546709494487,0.147820061457077,0.2939747324065257,1.6484701400706745,0.4856323586816644,-0.2600081359245282,-0.2657757532645798,0.4247519632536558,-0.200844070608511,1,normal_operation,0.2600630631785239,weak_normal,2025-04-03 00:47:01.133636
0.2726397140502929,2.476196755245962,4.173093493652344,-4.908113403320312,0.4441244079589843,-0.5548562347412109,1.5873557006835937,2.142211935424805,14.884751721191408,49.64706227494445,0.0095040749881312,-0.1674162923011992,-0.0247327616097798,0.0953225948826071,-1.4700398193359374,1.359113864917714,0.3687070556640625,-3.1962592163085937,-1.3120225097656248,-2.817975354003906,-0.4124012359619141,2.405574118041992,12.746729638671876,32.065660545958416,-0.277078911273305,-0.1447126902261611,-0.0327019097092921,0.0910956002830118,8.876801930236816,0.8024192290980796,10.43153663330078,7.611167077636718,8.786720092773436,8.366537701416014,9.26256767272949,0.8960299713134763,71.01441544189453,635.5319130230594,0.1900421296560983,0.2265825798431162,0.1518866328115966,-0.2937521274179185,-0.02033441809814,0.2986451213416794,0.6463047482003429,-0.4212771828096237,-0.0601539051355297,-0.1802951763558264,0.064550536075668,0.2448457124314945,1.7643813194015956,0.7168191764846112,0.244303848075115,-0.1429853076447014,-0.008520647073076,0.1220189401554085,-0.0354894717175564,0.0973458446644198,0.0618192956431579,-0.2042434918555196,-0.0147886677077382,-0.0864670751560549,0.0562235835375272,0.1426906586935821,0.6806784082777882,0.0858857286097647,-0.5188012939569091,-0.115303426839565,0.0375631159676046,0.3546652672131856,0.0554408499989419,0.2990455509907047,0.4258070449903723,-0.5254640129668424,0.0654831547599399,-0.0545248852197465,0.2635647017372352,0.3180895869569818,1.9394471695634696,0.740015435327515,-0.5760366468765955,0.0883993183375682,0.0001548392250096,0.1771105070380719,1,normal_operation,0.7877468575723174,strong_normal,2025-04-03 00:47:01.133636
0.9409212524414062,1.3442834696760355,4.173093493652344,-0.3878606689453124,0.5937620117187499,0.0766144531249999,1.0109516510009766,0.9343371978759768,8.303091357421874,21.53944680112117,-0.0013382077136275,-0.0366252582245254,-0.4501009107742572,-0.2187023944996689,-1.690007096862793,1.2344457309913917,0.1244984863281249,-3.519476440429687,-1.3192051147460937,-2.835333316040039,-0.833182177734375,2.002151138305664,13.769053747558594,35.03984200167581,-0.2050779653184844,-0.0913604812597644,-0.0952499087948775,-0.2751236977739366,9.100360510253903,1.0889321614112173,11.3772462890625,7.611167077636718,8.865728747558594,8.366537701416014,9.615712417602538,1.2491747161865234,72.80288408203124,672.0186773499555,0.4821668336461426,0.0288495819067568,-0.3103775830959565,-0.2881695141803644,-0.1467042498169661,0.1614897625775593,0.0839356815844601,-0.4212771828096237,-0.1387603370955796,-0.2726577339088851,-0.0355061256226326,0.2371516082862524,1.4451592668994264,0.3808086426537223,0.166795894388419,-0.2530181338808857,-0.1288444078466515,-0.4779487809685899,-0.0673983538437122,0.0900839621441295,0.056090352296917,-0.2117044413296938,-0.0570229709811887,-0.1369284075371886,-0.0089931087411921,0.1279352987959965,0.7544885155758689,0.1012612666914176,-0.0103426917727787,0.0509364773630522,-0.3736017314950569,-0.1614263133371656,0.0914299388687869,0.3195605516694019,0.430869832133562,-0.5254640129668424,0.1354961717006284,-0.0589548239700375,0.3839724354387525,0.44292725940879,2.2627993905245565,0.8838270392384209,-0.3658615898805534,-0.0571376900382983,0.2526691615726101,-0.2927604565354892,1,normal_operation,0.5263220987052932,strong_normal,2025-04-03 00:47:01.133636
1.543661520385742,1.7487089576577404,6.002263562011718,0.0790086547851562,1.0558429321289062,0.6859387756347656,1.4329296936035154,0.7469909179687498,12.349292163085936,43.52699126489633,0.0388632579747553,-0.3278626225178784,-0.1814598866089061,-0.0927439587955889,-1.7648258987426757,1.5237764931586109,-0.1460463012695312,-4.709394665527343,-1.3192051147460937,-2.43849439086914,-0.6961141326904297,1.7423802581787105,14.118607189941404,43.49204203180518,-0.1029893147427457,-0.2829762914538117,0.110311908377518,-0.2095780144247347,9.434351641845703,0.9236274878459378,11.3772462890625,8.259995727539062,9.515754498291017,8.851962088012696,9.67137760620117,0.8194155181884746,75.47481313476563,718.8806291064104,0.2942526394476686,-0.4875036746487033,-0.4390253991718389,0.013268211558975,-0.1193585376817114,0.1581703904723616,0.0839356815844601,-0.4135497708542289,-0.0997235835967751,-0.1954169221650902,-0.0280118683383058,0.1674050538267843,1.2863476280920036,0.3141146635175669,-0.1900717913641852,-0.5537212703255212,0.0782249787791175,0.3340413095111648,0.0367718224084301,0.1587974152884582,0.3433369070526249,-0.2117044413296938,0.0476301685181658,-0.0538587290166951,0.0931286371865676,0.1469873662032628,1.0317427272858075,0.2125502882042576,0.3424874147329015,-0.3695813311117517,-0.3476225345529506,-0.1308842261015429,-0.098591118051588,0.4582555387703814,0.430869832133562,-1.0707794807846127,0.0127901990985844,-0.2930421137222539,0.2024781779174337,0.4955202916396877,2.806116389733173,1.757746778979158,0.0555910100375677,-0.4935159258410387,-0.1280914412321604,0.1370643777647539,1,normal_operation,0.5182526326335828,strong_normal,2025-04-03 00:47:01.133636
1.2770073104858397,2.0807130917510426,6.002263562011718,-1.4700398193359374,1.284489190673828,0.4525041137695312,1.456273159790039,1.0037690460205078,14.808137268066403,47.68091712974768,0.1652129541251933,-0.0895390716319441,0.0628437235265584,0.0234332103249579,-1.406294200134277,1.3864861594099622,-0.1460463012695312,-4.709394665527343,-0.9169792358398436,-1.6615759521484377,-0.6458358978271485,1.0157400543212889,11.250353601074217,31.20005798053355,0.0160365993803556,-0.3099156202087512,-0.1962976947866321,-0.1203291913291172,9.558850128173829,1.0232453493095242,11.654973681640625,8.259995727539062,9.552864624023435,8.877101205444337,10.019135397338866,1.1420341918945294,76.47080102539063,739.3491745421791,0.2371609266510734,0.0967742266616113,0.0306562067582679,-0.2527294899887908,-0.1954502299752428,0.1491414097013351,0.081803981734696,-0.4135497708542289,-0.1984479328889735,-0.3043001535538205,-0.1144123278740557,0.1898878256797647,1.7272098032713348,0.4835516198806144,-0.1765622905188427,-0.1579724338757767,-0.1695502579211809,-0.1081779648167418,0.0002165007659916,0.1872815078619519,0.3433369070526249,-0.2303568150151294,0.0305099540997481,-0.1888885913751877,0.0931286371865676,0.2820172285617554,1.2557044427516448,0.2805952804770242,0.6009509460977764,0.1886363550997955,-0.0597343351181086,-0.3452136442221313,-0.1469873662032629,0.3944688027166842,0.146287902190059,-1.0707794807846127,0.0256470138174739,-0.1808281013182674,0.1132798623288685,0.294107963647136,2.1197090381091437,1.4176873771208518,0.1607062580083987,-0.0585671179171866,0.02626955172888,-0.115311746204541,1,normal_operation,0.964110371607144,strong_normal,2025-04-03 00:47:01.133636
0.6787561706542968,1.2507131647838496,2.4349030883789062,-1.4700398193359374,1.094150158691406,-0.2244564056396483,1.504755743408203,1.7292121490478514,10.070012182617187,16.19994687811934,0.2190368558854354,-0.2436419910294839,-0.522887206204607,-0.0861080676013397,-1.7354969284057615,0.7775623168345612,-0.8116343627929687,-2.7629087158203123,-1.6292542297363282,-2.5611972259521485,-0.9241618408203124,1.637035385131836,13.883975427246092,28.932421960535713,0.5849498014263173,0.0092942394003547,-0.4555788509139692,-0.389918820998665,9.467271914672851,1.092617837888788,11.654973681640625,8.104372619628906,9.439140045166017,8.642469442749023,10.019135397338866,1.3766659545898428,75.73817531738281,726.584409968209,0.2414409070079479,0.1917805968433762,-0.1137750879215756,-0.438923502002112,-0.1725844183055079,0.1152084545438448,-0.0043966309401383,-0.3446692194587275,-0.1867901993355762,-0.2456784076853086,-0.0997568914069277,0.1459215162783808,1.3806753464440635,0.3444669555218537,0.2532879487562849,-0.1759573848762793,0.1339263752947251,-0.1097656898511086,-0.0801052834169153,0.111438072386293,0.096992343164265,-0.2303568150151294,-0.061352986301022,-0.1888885913751877,0.0002331546710679,0.1891217460462557,0.8694670762225183,0.1506824032678161,0.3842761933349326,-0.1118018025261451,-0.4366047950036338,-0.4015191086799893,0.0877660797520049,0.1748154030024167,0.3301470142322098,-0.2546049008061957,0.1142457888232929,0.0420011486023826,0.1669054366744959,0.1249042880721132,1.3925329268583764,0.3061064790554613,-0.2808285917536464,-0.3114219181196224,0.133003406669677,-0.1549672951797123,1,normal_operation,0.14128306697313953,weak_normal,2025-04-03 00:47:01.133636
0.6838438491821289,1.600855479598885,3.3111808959960936,-2.090138049316406,0.4141968872070313,-0.144849200439453,1.6932991241455078,1.8381483245849608,10.618284362792968,24.243045413008044,-0.1418710006539345,0.0601584670079036,-0.6651307323719998,0.1210244456017289,-1.698985353088379,0.915608372640387,0.0885854614257812,-2.7629087158203123,-1.6627730529785154,-2.5611972259521485,-1.3335703247070312,1.2276269012451173,13.769053747558594,29.79911937646417,0.5282883595563143,-0.0726292560283083,-0.3714895208325341,-0.3781199496113642,9.113827894592283,1.6849869000876998,12.9095353515625,6.892906579589844,8.577227447509767,8.21031604309082,9.798270294189452,1.5879542510986315,72.91062315673828,687.2083179657247,0.015601786359689,-0.243737255097795,-0.5485142300152378,0.1817721600688263,-0.0847517229331979,0.0926351325523424,0.0114578866924818,-0.2456784076853087,-0.0477633997587761,-0.150251531598214,-0.0050960949533421,0.1451554366448719,0.7009295568505469,0.1261129785850848,-0.3461586423587877,-0.409998389782885,0.1206375381881156,0.3795558890620523,-0.1459714779936097,0.2153755732071401,0.096992343164265,-0.5936784081592925,-0.061352986301022,-0.2337209038405383,-0.0006328483928987,0.2330880554476396,1.3894686083243404,0.5415544793755446,0.0266786032476732,0.1606200657719395,-0.5481125859329824,-0.1414959339494084,0.1558472437038447,0.3505104462758452,0.7390336916650798,-0.3952970908906241,0.1957833080767684,-0.0825367535580524,0.3628885916121798,0.4454253451702322,2.5969433419750736,1.1771674905486225,-0.4904296635333261,0.0878477300152564,-0.2574101788222011,0.255125138951047,-1,potential_anomaly,-0.06897977900075203,borderline,2025-04-03 00:47:01.133636
0.5144540817260742,1.4827597631637948,3.3111808959960936,-2.090138049316406,0.3974374755859374,-0.144849200439453,1.004966146850586,1.149815347290039,9.215282189941403,19.705916139697365,-0.0679659293696464,0.105429939876796,-0.4388226539637379,0.2336986718795034,-1.661276676940918,1.0594696989830603,0.0885854614257812,-2.985569470214843,-1.5346832641601562,-2.777872476196289,-0.8643067993164062,1.9135656768798828,13.467384338378906,31.058529923288923,0.0511735086043507,0.0913434926752884,0.0616300326696183,-0.3084558799767548,9.222165519714355,1.654087736649008,12.9095353515625,6.892906579589844,8.762778076171873,8.373121755981446,9.826402163696288,1.453280407714843,73.77732415771484,702.2747449083279,0.1370206583223927,-0.092960723948068,-0.4358178101019411,0.0166732984161222,-0.0835859495778582,0.0925066953490149,0.0114578866924818,-0.2456784076853087,-0.0477633997587761,-0.1377611027910027,-0.0158545176326201,0.1219065851583825,0.7134532934679108,0.1243527972098218,-0.4994821651619386,0.2476972010058535,-0.390100825362752,0.2195587464924942,-0.1416414626737764,0.2358292356762299,0.2260934153156013,-0.5936784081592925,-0.1175765698385492,-0.2337209038405383,0.0128568147188894,0.2465777185594277,1.638078103303075,0.605421858784013,0.0563736024928833,0.3995692480958109,-0.22467404755565,0.0947321483414756,0.0803051302778306,0.3798478790882535,0.7390336916650798,-0.3952970908906241,-0.0816041348737806,-0.2113380554180156,0.4343338443894285,0.6456718998074442,2.608667691148776,1.2058666015742707,-0.4307860075247053,0.363398445346136,-0.3359209069675636,0.217925328840918,-1,potential_anomaly,-0.004190511722859558,borderline,2025-04-03 00:47:01.133636
0.8014590057373047,1.2421170072537868,2.442085693359375,-1.9776105712890624,0.946906756591797,0.4405331054687499,1.5292963104248043,1.0887632049560545,10.366893188476563,17.481529580692268,0.0805370021671936,-0.2238473852609931,-0.1979061084767157,-0.2751252702025848,-2.1446061370849607,0.9227479243768442,-0.6440402465820312,-3.1028853515624997,-2.439691491699219,-2.944269491577148,-1.5753846923828123,1.3688847991943356,17.156849096679686,43.606393721314014,-0.5532256683470452,0.2260197875410187,-0.3416863652868936,0.3883898197755074,9.147645993041992,0.492440416578686,9.9215716796875,8.353369592285155,9.253589416503909,8.905233074951171,9.348758932495118,0.4435258575439462,73.18116794433594,671.3753982231792,-0.5348340008657467,0.1181462198853244,0.1523911129299379,-0.1689989673069164,-0.1087999618633487,0.1204969579729728,0.1133797857593263,-0.2383506894517447,-0.1548147015891153,-0.2104054367337438,-0.0158545176326201,0.1945509191011236,1.1190091898855243,0.2108555886576523,0.0134801431981444,-0.0293932668975455,-0.2751998389735291,-0.3565676834669398,-0.0215001914534797,0.1652796896897827,0.2260934153156013,-0.3308131704352611,-0.0291776416936456,-0.0985578102414354,0.1063185300069827,0.2048763402484182,1.1016891286061914,0.2222370724518973,0.1968523296507185,-0.0328601779286023,-0.4267174503608757,-0.4094299352889157,0.076957695357498,0.2769187133331256,0.5633016853001547,-0.2142358349012887,-0.0197848392306227,-0.1561137061850653,0.2782201382043632,0.4343338443894284,1.820071977976682,0.6608516853504902,0.2684590590956415,-0.0738132975708375,-0.2297229028615676,-0.3177375605425399,1,normal_operation,0.02350153540925448,weak_normal,2025-04-03 00:47:01.133636
0.6775590698242187,1.2505481606276465,2.442085693359375,-1.9776105712890624,0.9732429748535156,0.3968389251708984,1.339555828857422,0.9427169036865236,10.1514150390625,16.183655961202,0.0407655907514789,-0.1690598632075125,-0.1766925871080778,-0.2788214476838377,-2.0347721359252926,0.7572733795837532,-0.6440402465820312,-3.1028853515624997,-1.9979612854003903,-2.5103204406738273,-1.61548757019043,0.8948328704833974,16.27817708740234,37.710084932513425,-0.3038096089297175,-0.3377135482141861,0.0339210414151132,0.1720283017615505,9.212887988281247,0.4351095126483038,9.967061511230469,8.566453540039062,9.253589416503909,9.035717065429685,9.348758932495118,0.3130418670654329,73.70310390624999,680.5330029809118,-0.5840852320036318,0.2308795700552549,0.0114298690485202,-0.16910150632049,-0.2005962866438139,0.1448293744246063,0.1133797857593263,-0.4276722823589158,-0.2240949467064475,-0.2527729712478047,-0.1767645484796546,0.07600842276815,1.831529864669164,0.4897153432920799,-0.1932574151393093,-0.3964813712608083,0.2062650557349041,-0.1165954734362495,0.0181361026280708,0.1503722682023895,0.1582787138449819,-0.3308131704352611,0.0676148546097039,-0.0199180704712329,0.1274023738335555,0.1473204443047884,0.9543353764912502,0.1835258981029383,0.2292548162763191,-0.3861632061367969,-0.3347301615993875,-0.1730617311483601,-0.0009825803995005,0.2812163237603962,0.5633016853001547,-0.4163476269070442,-0.0197848392306227,-0.1715685300958547,0.098058193089147,0.2696267231850018,1.7014961738335557,0.6326686897084277,0.3608625807685826,-0.2227973770107653,-0.3143043159835361,-0.2633933302757992,1,normal_operation,0.13126257235558314,weak_normal,2025-04-03 00:47:01.133636
1.0657190139770507,0.9631562895735384,3.1196447631835937,-0.3878606689453124,0.8463502868652342,0.6063315704345702,1.4030021728515625,0.7966706024169923,9.301473449707032,16.507416439178265,-0.0844232633555561,0.1125447758232712,-0.1053752011478521,-0.1259486546422563,-1.8285715179443356,0.8359028171629005,-0.8044517578125,-3.1124621582031247,-1.5885528015136718,-2.5103204406738273,-1.0959458099365234,1.414374630737304,14.628572143554685,32.33925852782501,0.1831450199170501,-0.0295488374072406,-0.3054829827019815,-0.2872016095663368,9.08449892425537,0.7966991016311746,10.644620581054689,8.080430603027343,8.875305554199217,8.547299926757812,9.374496600341796,0.8271966735839822,72.67599139404297,665.3028013066951,-0.6281739156631854,-0.0500328359215681,0.4103188647378755,-0.3495498148587408,-0.2411152376944075,0.183272692523398,0.1642741196724433,-0.4592480863835461,-0.2705260340591211,-0.3370417309337905,-0.210238897682981,0.1268028332508094,2.2574701409001467,0.733803501385653,-0.0514802706166026,-0.2869093172064166,-0.1519748102635527,0.0760309725690414,0.0415348392602467,0.0755047650808511,0.1582787138449819,-0.0559571210563067,0.0163874425950613,-0.0143556661757548,0.1144123278740557,0.1287679940498104,0.5334578874034572,0.0594088993783124,-0.3868316964531569,0.1367694000415279,0.0127541260608878,-0.3554468323843654,-0.1622756510632895,0.1814400883342941,0.177730474974079,-0.4163476269070442,-0.206575038566199,-0.2667622515118813,-0.0942277949216022,0.1725344565902791,1.7623828507924415,0.4740311406621678,-0.1556028399386936,-0.0326542400252343,-0.1148316297026205,-0.0575634194112802,1,normal_operation,0.0871859273585891,weak_normal,2025-04-03 00:47:01.133636
1.0737994445800785,1.3021381395292295,3.1196447631835937,-1.6400281372070311,1.0223241088867183,0.7050923889160156,1.7980454467773437,1.0929530578613282,11.870451831054687,22.78887185277702,-0.3774256561738021,0.2950031060231493,-0.4884928181138199,0.2098310915030194,-1.2910732452392577,0.8358290958124749,0.05746083984375,-3.1124621582031247,-1.1563994018554686,-1.5322890625,-1.0055646972656251,0.5267243652343747,10.443507641601563,18.923843215834623,-0.1084475216603119,-0.5381607388736895,-0.0185487014069267,0.1172820955951169,9.428366137695312,0.9357247967975288,10.644620581054689,8.080430603027343,9.423577734374998,8.556278182983398,10.29267293701172,1.736394754028321,75.4269291015625,718.157351374251,-0.3366522583802379,-0.0012340607308464,-0.1417295835781542,-0.09414050288793,-0.1678713631689202,0.1789507969781414,0.1642741196724433,-0.4592480863835461,-0.1764647781882816,-0.2670620218032545,-0.1086167689075097,0.1584452528957447,1.7026952549990482,0.4816334584904279,0.1208919961714501,-0.2894603737173671,-0.1789099524424467,0.2268715211613027,-0.0455484303836306,0.084971571061646,0.1093828485410186,-0.1649402758754946,-0.0448989280856556,-0.0934617152880932,-0.0009992343045768,0.0924624809835163,0.6223231248904967,0.0743586191927744,-0.0198436576573357,0.4551092760940143,-0.4577778536446138,-0.0287561238461757,0.0132232006305677,0.2409018564212359,0.3550612562263273,-0.3020352224634461,-0.0121240428955331,-0.1845585760553545,0.2114046710383207,0.3959632470936753,1.803950997862841,0.465668459696912,0.2224214578432579,0.3396368411251826,-0.1810143276259099,-0.0349476225679053,1,normal_operation,0.5613965161523349,strong_normal,2025-04-03 00:47:01.133636
0.97054949798584,1.0642401011273208,2.142810485839844,-1.6400281372070311,1.2246341491699215,0.9211690887451172,1.4347253448486326,0.5135562561035154,11.04445225830078,16.596586567104445,-0.3879393729067242,0.1348412378393001,-0.0870348294827168,0.0379798001684544,-1.386542036437988,0.6670101852501235,0.05746083984375,-2.5570073730468748,-1.4808137268066406,-1.5322890625,-1.3060370056152344,0.2262520568847654,11.207257971191408,18.939211248296058,0.0413249509042575,0.0028900305697119,-0.0044970542554508,-0.4820147020484827,9.744999307250977,0.6541000452729774,10.594342346191404,8.578424548339843,9.92755718383789,9.4864255279541,10.196904870605469,0.710479342651368,77.9599944580078,763.1428669403849,-0.3564478319448471,-0.1333165721424833,-0.0688381480237841,0.3792172677388806,-0.0991573508241816,0.1245701368132583,0.1528162329799615,-0.2384839206923549,-0.1589448700480332,-0.1865903524746609,-0.0178862940519266,0.1687040584227343,1.1300673828561756,0.2027991936651498,0.0012497266281648,-0.5331991014172154,-0.0482676089889449,-0.0015272718745546,-0.0581387826212996,0.0743710800698292,0.0389035222581942,-0.1649402758754946,-0.0546914242705092,-0.1154448699887852,0.0129900459594997,0.1284349159482849,0.6036707512050612,0.0712894047635174,-0.244179587044346,-0.0441636974807609,-0.2441147124948001,-0.1465796507781064,0.1045532160688969,0.189367690250147,0.3550612562263273,-0.2251607966313295,0.1305000001777438,0.0098924196153113,0.2349866006263357,0.2250941810110243,1.5545421154404453,0.3743319768082006,-0.1408930284076421,-0.2376598333396806,-0.2039054037962551,-0.1872829197721255,1,normal_operation,0.4355515443697473,weak_normal,2025-04-03 00:47:01.133636
0.9702502227783204,1.1352497614443744,1.9105729248046872,-1.8938135131835936,1.3275848205566405,0.9277531433105468,1.6232687255859377,0.6955155822753906,11.54962880859375,17.841420125287115,-0.0744892613679166,-0.4450868405785498,-0.0235258270071294,0.0867817850917024,-1.7636287979125975,1.1757693373797635,0.8882488159179687,-3.1459809814453124,-1.9189526306152345,-2.587533444213867,-1.4137760803222654,1.1737573638916017,15.885528015136718,35.94256057239266,-0.5442249228256837,0.0108003388173902,0.1797913350445676,-0.2795316356225513,9.496900160217283,0.5499632054092811,10.211270080566406,8.480262280273436,9.604339959716796,9.254786517333985,9.926958633422853,0.6721721160888681,75.97520128173826,723.948577443513,0.2788606183847653,-0.1855791704903733,-0.3292948996419564,-0.2893409425462375,-0.0749592267483442,0.1455456321861088,0.1528162329799615,-0.2587350692651136,-0.0767411945915063,-0.2030111028798747,0.008693338449819,0.2117044413296938,1.138727413495842,0.2144193337853102,-0.2062726601850218,-0.3364199820494564,0.0445666955158636,-0.3339191876742025,-0.0321087289870712,0.0710637253391082,0.0730107198544192,-0.1468208271525,-0.0197848392306227,-0.0944609495926701,0.0178196784316214,0.1122806280242916,0.5022817771006578,0.0486481882898992,0.0739210934232212,-0.2230853318617507,-0.2063973413098721,-0.410844777347004,0.0796056662646268,0.1310048467127575,0.209173047758099,-0.2251607966313295,0.1140459419623775,0.0473970138470979,0.1633748087983241,0.1159777949512262,1.087166923379674,0.1879946557093461,-0.0333769044619024,-0.2616097740334605,-0.1992237547353786,-0.0278493656383268,1,normal_operation,0.27834098707620125,weak_normal,2025-04-03 00:47:01.133636
0.2047042419433593,2.0286568121991135,2.272097375488281,-4.058171813964844,0.9516951599121092,-0.5398924743652342,1.6717513092041014,2.2116437835693357,13.718775512695313,33.25881830681179,0.0969039995682165,-0.1314774480205863,-0.3263717394256584,-0.1954337160188174,-1.4598644622802734,1.3190050848891453,0.8882488159179687,-3.1459809814453124,-1.8088193542480469,-2.4061726684570313,-0.7338228088378905,1.6723498596191408,13.96298408203125,30.967829297538344,-0.3224908378933651,0.0058972213132932,0.0132252334826219,-0.1954955815757485,9.388263259887694,1.6297435294988571,13.314155432128905,7.5345526245117185,9.139864837646485,8.43237824707031,9.561842880249024,1.1294646331787117,75.10610607910155,726.364408071204,0.0042595769878475,-0.1652227588388309,-0.3780832299778721,0.0875811584848932,-0.1708024504623458,0.2074713950822939,0.1167105667745826,-0.5589050543600161,-0.1763315469476713,-0.278386677255126,-0.0075275650944793,0.2708591121606467,1.703494642442709,0.5777428548906834,0.1794406481595458,-0.3580166423466627,0.1402287915442676,0.2078571653906654,-0.0992239664444867,0.1186432566636262,0.0730107198544192,-0.27259111828858,-0.119575038447703,-0.1912867537061723,0.0098591118051588,0.2011458655113311,1.0290781024736029,0.1913729429498219,-0.1985984833886257,-0.2260654989354919,0.0319476190262266,0.0985434452633004,0.0193851455087919,0.2625580456395071,0.274189893175903,-0.4336676881863773,0.1140459419623775,-0.0861339970545293,0.2155348394972386,0.301668836551768,1.8082143975623692,0.5545000895714763,0.2865104295948435,-0.2996112245071371,-0.1036520045261707,0.0183130898467312,1,normal_operation,1.1585173124658383,strong_normal,2025-04-03 00:47:01.133636
2.309806051635742,5.524298122309798,16.08185255126953,-4.058171813964844,1.2689268798828124,-0.077811553955078,1.923741033935547,2.001552587890625,26.920403466796873,286.8245899226293,0.0252863342520734,-0.4512282432579857,-0.1085213703472606,-0.0017315258216599,-1.388636962890625,1.2012213421822078,0.2537853759765625,-3.864241479492187,-1.408987677001953,-1.8920178619384769,-0.4716577270507812,1.4203601348876955,11.616666455078123,26.96996262096099,0.057368884174731,-0.6804560749074383,-0.1610955848468958,0.2105088311007293,8.52844558868408,3.582088043829228,13.314155432128905,0.9026140258789062,8.316259466552733,7.850587243652344,9.911994873046874,2.0614076293945303,68.22756470947265,684.5259113031141,0.0405524325441008,-0.7024685354994363,-0.1067776914154217,0.2264634440029867,-0.0610698699147252,0.3849043389527168,0.8381577346791089,-0.5589050543600161,-0.1134464013796313,-0.2555042116803149,-0.0074276416640216,0.2480765700162932,2.268528333870797,1.2150470332482357,0.0073422234653477,-0.3983889747877294,-0.0929831481786802,0.1056330484967591,0.0451154288516472,0.3635946459565,0.8950474744196875,-0.27259111828858,-0.0694800919782475,-0.2166006894221206,0.1110149312384942,0.3276156206606149,2.148620217321569,1.0738917479096053,0.1791131573305567,-0.3892167624539623,-0.0030817593194107,-0.1321824010595805,-0.1583120216551345,0.2905374869862561,0.274189893175903,-0.4336676881863773,-0.317689893235151,-0.3998602608815253,0.1188089588141941,0.5186692196957194,2.4834303249751377,0.875797820358598,0.2621716185024983,-0.2567955359122139,-0.0462566911459589,-0.1929500182178884,1,normal_operation,0.5930982116587065,strong_normal,2025-04-03 00:47:01.133636
3.5727474273681636,4.830537963203604,16.08185255126953,-0.0742202514648437,1.7764976318359376,1.445499252319336,2.7467478546142576,1.3012486022949217,28.730419921874997,288.78896954973646,-0.1848595333635993,-0.2067062928470285,0.0119319208852485,0.0819704843143923,-1.3883376876831055,1.288746979901554,0.0263362182617187,-3.864241479492187,-0.9516951599121092,-2.1679496032714844,-0.3333925811767578,1.8345570220947267,11.15937393798828,28.706802505973187,-0.1570531363100059,-0.3896796607517928,-0.1229245929226976,0.2406903549587564,8.03733497314453,3.765276238744843,13.007697619628903,0.9026140258789062,8.149862451171874,6.6702458251953125,10.854113226318358,4.183867401123045,64.29867978515624,630.2084689967096,0.0715064829048458,-0.4874915799866895,-0.3250227734573686,0.1515655968566362,0.0205176110539791,0.3145959185624543,0.8381577346791089,-0.1933185301254787,-0.0681477795721449,-0.141325038477327,-0.0252473200956431,0.1160777183816839,1.5121745809263842,0.7951325147161341,-0.1469179676703856,0.0166248672123388,-0.0819508814338682,-0.1923210798921233,0.1835093800355488,0.3079754820551293,0.8950474744196875,-0.223295559262786,0.1474869833555513,0.0329414242408853,0.2486094949787342,0.2156680707378488,2.038038287615058,1.0281967208649665,-0.054042652362224,-0.4522145959699022,0.0354082288140429,0.2010080851767928,-0.096992343164265,0.2790871728187251,0.2824502300937389,-0.4091531399140905,-0.0903307811337523,-0.3975287141708458,0.1172434917370236,0.5147722059078694,2.1205084255528055,0.6983773173155476,0.2965131973263508,0.0804137581728391,-0.0341134705709422,-0.096110281198083,1,normal_operation,0.2457922495817484,weak_normal,2025-04-03 00:47:01.133636
2.270002449035644,1.3556544222133928,5.058948107910156,0.8643067993164062,1.8614917907714843,1.307832656860351,2.7467478546142576,1.4389151977539063,18.160019592285153,55.92568024875641,-0.2264882658841079,-0.2479118149677263,-0.1616139651440384,-0.0617433390442962,-1.859097589111328,1.2088839619190008,0.0263362182617187,-3.632003918457031,-1.859097589111328,-2.8233623077392576,-1.1192892761230469,1.7040730316162107,14.925453149414064,39.34115423379626,0.106213160054639,-0.3300464412526979,0.1822947872243408,0.0108753528937038,8.366836976623535,2.2456816907551684,12.014103930664062,4.070142822265625,8.38329711303711,7.387309222412108,9.472658868408203,2.0853496459960965,66.93469581298828,600.3763779967028,-0.1833223536036485,-0.5847612887152358,0.1795646477905714,0.2696805871470503,-0.2126703678241182,0.1923992981086527,-0.0194517611290971,-0.6892052076768448,-0.1665390507628176,-0.223895099845532,-0.1186757275735838,0.1052193722719481,1.7013629425929455,0.6579694021051835,0.182072626551545,-0.0171909629743248,-0.1962974766938376,-0.2968641541766387,0.1385271824245117,0.1560597235600468,0.401558959199306,-0.1005895866607418,0.1474869833555513,0.0450321593262658,0.2460447935969868,0.2010126342707209,1.4327687615226727,0.3483553407048976,0.1535656544895749,-0.6245858326182757,-0.2949388491999122,0.1906925542319723,-0.1060687214308385,0.3125923586961292,0.2824502300937389,-0.6043369074081129,-0.0211171516367252,-0.4057224354683765,0.1253372896040965,0.5310597250724731,2.214702912664255,0.8717164510494588,0.4131447288181755,-0.2426367430946506,-0.4854059460135998,-0.3852623354872292,1,normal_operation,0.1162002949981773,weak_normal,2025-04-03 00:47:01.133636
-0.3558382217407225,5.715060533404702,5.058948107910156,-15.04755743408203,1.179144317626953,0.7278373046875,1.7118541870117188,0.9840168823242188,27.248409094238284,262.3083019242531,0.0073440698228621,-0.0456758588564069,0.0234580131237347,-0.010881715298824,-0.9496002334594728,3.005255993516484,6.136338854980468,-3.632003918457031,-1.859097589111328,-2.9741970123291015,-0.8170213165283202,2.157175695800781,22.081721911621095,79.4664335196243,-0.0904010598393399,-0.0961546131925173,0.1834492970507091,-0.0568061337266875,8.298003678894045,1.2600556402109382,10.412383020019533,6.1267620483398435,8.499415893554687,7.536348275756836,9.058461981201171,1.5221137054443368,66.38402943115236,563.5568421709318,0.0314475311290146,-0.3081560356901927,-0.3985774881761613,-0.0221866101024579,-0.0987743110074271,0.3094319221846134,0.4938882089422122,-0.6892052076768448,-0.0930620215662625,-0.223895099845532,0.018918836166656,0.242813936012188,1.865370599784168,0.8440358318548531,0.3198199666800181,0.0914243677900655,-0.0706547701339462,-0.2151007570413906,0.220048047772911,0.5572793289467171,1.5742603390507632,-0.3893016850631626,0.0453652374277915,-0.0714119449670961,0.2844486987028926,0.3558606436699887,2.863539054436192,2.87185115039978,0.0010737568975618,-0.1556321917055879,-0.3291628697762818,-0.0155784028844478,-0.0792559342580249,0.3357002524758824,0.3742465548742039,-0.6043369074081129,-0.0113912710721767,-0.3907339208997228,0.165673047698851,0.556406968598574,2.3892358378636875,0.9518093010198684,0.3505995052209416,-0.3852863262464183,-0.5561367077565367,-0.1726619840593479,-1,potential_anomaly,-0.5021261690733021,strong_anomaly,2025-04-03 00:47:01.133636
-0.8095394363403319,5.4081348876466695,2.1883003173828124,-15.04755743408203,1.1240776794433591,0.6631938598632812,1.467047067260742,0.8038532073974609,23.618799377441405,239.22621649577025,-0.1732313466066477,-0.2628317325049166,-0.1041159520024233,-0.0389641016298054,-0.0206499893188477,2.555101427849526,6.136338854980468,-2.932897033691406,-0.7158662963867186,-1.2228384979248046,-0.0538695373535155,1.1689689605712892,14.650119958496091,52.23175782926043,-0.4019316847527898,-0.1956002896702784,0.08946830356678,-0.0176310633371669,8.757690397644044,1.2503965653557414,10.412383020019533,6.1267620483398435,8.58680425415039,8.45991156616211,9.449913952636718,0.9900023864746093,70.06152318115235,626.0850613731209,-0.0771791465868482,-0.3073637138294746,-0.3269427000164698,0.051624435199175,-0.0176031776656298,0.2130404660713627,0.4938882089422122,-0.2651301688144058,-0.0723445636513679,-0.1168437980151929,0.018918836166656,0.1357626341818489,1.2160015330497895,0.3655688963826496,0.0283677428708911,-0.2344257061863978,-0.1649994855811379,-0.13618076761915,0.1468208271525001,0.5590614838979383,1.5742603390507632,-0.3893016850631626,-0.0257802450580841,-0.0697798622696205,0.0625520674665143,0.1323319297361349,2.378444107374257,2.6728487845112725,-0.0598205130036331,-0.2082787548964768,-0.4046355303845613,0.0655494403790212,0.0072611026132588,0.2666444379504985,0.3742465548742039,-0.391566616153537,0.0687473201548911,-0.1738001533760765,0.1662725882815972,0.3400727416576737,1.8111454848557949,0.5692158392087805,0.1682943830051182,-0.1860386644271428,-0.3046549014692989,0.2266877707511968,-1,potential_anomaly,-0.36227896706178453,borderline,2025-04-03 00:47:01.133636
1.6065093139648436,1.1823775261350076,4.508281726074219,0.7158662963867187,1.20667763671875,0.8409633331298827,1.5867571502685545,0.7457938171386718,12.85207451171875,31.831110321319464,-0.2320791387038941,-0.3084127669127152,-0.0067766692327326,0.0274172699996822,-1.2126631408691406,0.6396899575723213,-0.4405331054687499,-2.427720483398437,-1.0498574279785156,-1.5113397979736327,-0.8259995727539061,0.6853402252197266,9.701305126953123,15.038041080331896,0.4867723176920088,0.1644781769726174,-0.1903937880629109,-0.3589093914486931,9.002796792602538,0.7568335687716747,10.311826550292968,7.711723547363281,8.963891015624998,8.545504275512695,9.37748935241699,0.8319850769042958,72.0223743408203,652.9851771177136,-0.0088159604057745,-0.4748750483950963,-0.0796286978075689,0.3797499904617094,-0.1840256510929135,0.0817857729756063,-0.0983246555703675,-0.3076309345690769,-0.1520168455363,-0.2695267997545442,-0.1110815468587993,0.1584452528957448,1.4722052087433084,0.3244348233711054,0.2702040228545799,-0.1663705408847633,-0.3252609445186475,-0.409491079406049,0.0781567765229903,0.1190493999282024,0.3080306282909076,-0.0868667688778857,0.0720114855498423,0.0057622511563934,0.1397928792103091,0.1340306280539156,0.9271562034067584,0.162249930717838,0.3570404325943487,-0.2359703274113101,-0.3862589424623904,-0.196740297813946,-0.2240116771810661,0.3278087188301449,0.121107197714721,-1.0030980105546037,-0.1167771823948877,-0.2726577339088851,-0.0475635528978607,0.2250941810110244,2.0686814729554164,1.261118301236281,0.1437482057241199,-0.4720283422552657,-0.2254113813606714,-0.0170042177693012,1,normal_operation,0.07378146205828195,weak_normal,2025-04-03 00:47:01.133636
1.579873820495605,1.148822332772847,4.508281726074219,0.7158662963867187,1.2234370483398438,1.016338604736328,1.4538789581298828,0.4375403533935547,12.638990563964844,30.52635232772022,0.0405739016017056,-0.0382561198044529,-0.1639117652707455,-0.0342417440247446,-1.690007096862793,1.1811330106312672,0.2561795776367187,-3.6176387084960937,-1.6508020446777345,-2.5294740539550777,-0.8762778076171873,1.6531962463378904,14.03241593017578,34.00959340999589,0.1418281896637565,-0.6319363011328898,-0.1662333212228269,0.2766521291368192,9.132682232666015,0.663806173017145,10.065223779296874,7.711723547363281,9.1554271484375,8.978854776000976,9.479841473388673,0.5009866973876953,73.06145786132812,670.7721871855133,-0.3025057482852705,-0.2752851377149313,0.0109416618154499,0.0248615370605859,-0.1932852223153262,0.0869238574319851,-0.0588882083497323,-0.3076309345690769,-0.1847917307264225,-0.278919602217567,-0.1298671517848452,0.1490524504327217,1.5462817785226095,0.3593194732507291,-0.1176794704201841,-0.4474311540806863,0.2610497309564331,-0.0044498970502922,0.0692968990224084,0.119320578774066,0.3080306282909076,-0.1187090353837364,0.0720114855498423,0.0091596477919549,0.114845329406039,0.105685681614084,0.8887856061110051,0.1523156858647997,0.2008007148703676,0.0156233858528619,-0.0582141194407371,-0.3862982945762046,-0.19398468632853,0.3380226633335924,0.2352863709177088,-1.0030980105546037,-0.1371615622082566,-0.2338541350811486,-0.0446657734145876,0.1891883616665609,2.080006128407288,1.2151150356569065,-0.0831392841055467,-0.0406039755998987,0.1621123031974584,-0.3859617197020851,1,normal_operation,0.23884275625957896,weak_normal,2025-04-03 00:47:01.133636
0.96396544342041,0.708257841948993,1.74297880859375,-0.2681505859374999,1.2330138549804688,0.5662286926269531,1.4395137481689453,0.8732850555419922,8.329427575683592,11.446868374327622,0.2713615088648946,-0.1798944040257918,-0.2198141719042682,-0.28025356532154,-1.5206173294067382,1.2062591949438344,0.2561795776367187,-3.6176387084960937,-1.465251416015625,-2.226008993530274,-0.5734112976074218,1.6525976959228514,12.677297790527344,30.13870646302903,0.1387026598524131,-0.3942255578089311,-0.0630340434862014,-0.2696252392394787,9.253888691711426,0.6945356155155199,10.189722265625,7.769184387207031,9.254786517333985,9.062651834106449,9.55166752319336,0.4890156890869122,74.0311095336914,688.934685118433,-0.4929643493675088,0.1930305841303573,-0.1504048309182331,0.1339797098537673,-0.1084335759516705,0.1690318359051573,0.3086967844939589,-0.2776539054317696,-0.1491523738631794,-0.1868568149558814,-0.117743108889312,0.0691137060665693,1.4848621766012822,0.3226368155450779,0.011870548381306,-0.0964256959054697,-0.0216970716084316,0.1593021791490158,-0.0399860260881525,0.1167868805405802,0.1091163860597981,-0.2263598777968218,-0.0100589586660741,-0.1348966311178822,0.0504946401912863,0.1853912713091685,0.834160797460801,0.1219044619897774,0.3567007471341231,-0.2092333898327591,-0.2201991600183267,-0.4363657229189069,0.0946774503586618,0.2280878365375717,0.5386539057872576,-0.2363522208425909,0.0462312404917581,-0.0148885911381959,0.2375846098182356,0.2524732009564315,1.521900461490933,0.4879030462624554,0.2799289045276316,-0.0468446828428704,-0.0427842008273662,-0.1502719604824893,1,normal_operation,0.5904577087436262,strong_normal,2025-04-03 00:47:01.133636
0.1116296524047851,1.6524687836002372,1.917755529785156,-3.303998291015625,0.4381389038085937,-0.5380968231201171,1.4215572357177733,1.9596540588378903,10.814608898925782,21.944914080554092,-0.040918961423395,-0.362272997590145,-0.0761340251767538,-0.1202541763772681,-1.3907318893432616,0.954137002217164,-0.0047884033203125,-3.35188232421875,-1.322796417236328,-1.6657658050537107,-0.977432827758789,0.6883329772949217,11.125855114746091,22.756100856289876,-0.0423514286537891,-0.733733455302002,0.085942027923256,0.3589711363008725,9.060856182861327,0.7861380382733084,10.189722265625,7.769184387207031,9.18655177001953,8.778340386962892,9.48044002380371,0.7020996368408188,72.48684946289063,661.7370222537324,-0.38777718390658,0.2459020955022172,-0.3568356571603472,0.0679316509645055,-0.0614362558264034,0.2275357655355604,0.338140888668825,-0.3024349161852769,-0.1494188363443999,-0.1831263402187943,-0.0338407351150045,0.1492856051037898,1.7851653929367952,0.4443755050225665,0.2595316186556306,-0.2961668154138507,-0.4635800972394459,-0.2413658512747409,-0.0654998086650162,0.1324464611781788,0.0784732007194397,-0.2263598777968218,-0.0685474732939757,-0.1874563555386275,0.0718116386889269,0.2592679942275545,1.0510612571742948,0.1746583201102125,0.1279087759021968,-0.4584914042292549,-0.3883540719819068,-0.0952021917442625,0.2183826572652828,0.2399754233999633,0.6638912719608965,-0.0045298621807486,0.1382274121331386,0.0232821592966419,0.3180229713366766,0.2947408120400347,1.7649142443640369,0.8422335106419014,0.2760648837727238,-0.4649488100493932,-0.451820277543929,-0.1170681419938912,1,normal_operation,0.15267512011667872,weak_normal,2025-04-03 00:47:01.133636
-0.0745195266723633,2.1607193914541267,3.4739866088867184,-3.303998291015625,0.2130839477539062,-1.6807295654296877,1.1671733093261718,2.8479028747558592,14.90869373779297,37.39409158769092,-0.2678706122535191,-0.3751240189584093,0.4041053409459748,-0.1126334823073192,-1.068711766052246,1.1110314263653198,0.0167594116210937,-3.35188232421875,-0.8044517578125,-1.4808137268066406,-0.1520318054199218,1.3287819213867187,8.583212951660155,19.01228535415894,0.0196096010823418,-0.3447524036300479,-0.0963589867106778,0.2851241408428854,9.23832638092041,0.6136049001906205,10.046070166015625,7.912836486816405,9.24640681152344,9.03511851501465,9.68514426574707,0.6500257507324196,73.90661104736328,685.7854823515836,-0.3265318847988548,0.3139230324023125,-0.6241245896811479,0.0851325830337377,-0.1234220905203241,0.2140403309439373,0.338140888668825,-0.3417381321653019,-0.1829264933578789,-0.2923426497090501,-0.0529927259527285,0.2393499237563215,1.796090354666836,0.4883702055919785,-0.1067157546224539,-0.1938947061140173,-0.1124132712201499,-0.1525419536689315,-0.1043866770181341,0.1591777285100095,0.0722113324107577,-0.3305467079540406,-0.0873330782200215,-0.2275589589623141,0.0460980092511478,0.2736569682134619,1.2052098025603588,0.2898730207399565,-0.0703605529127767,-0.2433153977388261,0.1065354654167677,-0.4796079085918689,0.1139959802471487,0.3722649778381809,0.6638912719608965,-0.489091884280243,0.1060520675257623,-0.0866003063966651,0.4115179944349225,0.4981183008315876,2.5736278748682793,1.2126103778989574,-0.3038213796286637,-0.2949447288813164,0.3291805705061654,-0.3451619796079931,1,normal_operation,0.28342367312870076,weak_normal,2025-04-03 00:47:01.133636
1.2811971633911132,2.0568325879518876,4.000710974121094,-2.6791116577148437,1.4628572143554686,0.221463653564453,2.7539304595947263,2.532466806030273,16.450559606933595,46.97621173073835,-0.2810815871420916,-0.3020138667371467,0.35590374506954,-0.2448923166512693,-1.7468693862915037,1.2740870376125135,0.0167594116210937,-3.423708374023437,-2.099714855957031,-2.7198130859375,-0.373495458984375,2.346317626953125,14.008473913574218,37.39880345739749,0.1384161063127455,0.1315349343203647,0.1093183894647301,-0.276607691268278,8.404246377563478,1.30096650414545,10.046070166015625,6.110002636718749,8.756792572021485,7.625532287597656,9.353547335815431,1.7280150482177756,67.23397102050782,578.590968157578,0.2194660364542178,0.2568451410146037,-0.1491235232769296,-0.2192054911840605,-0.0942277949216022,0.1529179338807001,0.0977917306079265,-0.3417381321653019,-0.0542917305486785,-0.2124372131530501,0.0228491577646585,0.2352863709177087,1.0986248100721556,0.2581021747050377,-0.3369731612038104,-0.4007688123189117,0.4920642996358582,-0.0534219913481364,-0.0010991577350346,0.2059616740242871,0.3249509958484098,-0.3305467079540406,0.0454318530480966,-0.0752756509447936,0.1053192957024058,0.1805949466471994,1.276088822565014,0.3393713545169057,0.4189796775994637,0.0441606816044357,-0.0936461363333882,-0.1660593273121235,0.0525597244207452,0.3411089052985942,0.4705727418354177,-0.489091884280243,0.1014555897247085,-0.2370849926659472,0.3846385916418037,0.621723584307751,2.4746370630948604,0.95294247924152,-0.3850148351967082,-0.448041180428265,0.5584189407605478,-0.1358971028193394,1,normal_operation,0.13851077521360744,weak_normal,2025-04-03 00:47:01.133636
1.9832968002319336,1.1483828491721289,4.000710974121094,0.4357447021484374,1.952471453857422,1.0025719451904296,2.6803087585449217,1.677736813354492,15.866374401855468,42.017994928663384,-0.3662426183630805,-0.0838801879109686,0.0860219925595992,-0.2615130648462085,-2.691381941223144,0.6102672065417143,-1.9776105712890624,-3.5865140869140624,-2.663549346923828,-3.229778039550781,-2.043451116943359,1.1863269226074218,21.531055529785153,60.92770253537831,-0.6598112194529517,0.2864997769432688,-0.1483185069748817,-0.0150203155982189,8.36444277496338,1.255722787314052,9.677363110351562,6.110002636718749,8.723273748779295,7.625532287597656,9.428366137695312,1.802833850097656,66.91554219970703,572.3259412337346,0.1172526073949892,0.3882785981602129,-0.1759809003563507,-0.2726464943411985,-0.0758252298123109,0.12030543918715,0.0977917306079265,-0.3012358350197846,-0.0537588055862375,-0.1461546709494488,0.0101588820965318,0.1563135530459806,0.8498820838528109,0.1617829133928226,-0.0972146933246108,0.037859501853428,0.0457113135319962,-0.1865588360320887,0.0883989281449035,0.0981729383367733,0.3249509958484098,-0.0123905053767536,0.0684142420533654,0.0258135528682367,0.1053192957024058,0.0795057428341691,0.731972435912736,0.1396183705507498,-0.07125874481665,-0.0776989103339168,-0.0776757159077621,-0.305126762431061,0.0274123277555598,0.175423173737349,0.3822404293108192,-0.2051761105397914,-0.0020650842294589,-0.0933284840474829,0.0883323125245984,0.1816607965720814,1.0535926507458897,0.2521978047764991,0.1205994794657216,-0.2050093024394358,-0.0896706844148998,-0.1516878771370673,-1,potential_anomaly,-0.26921024653275016,borderline,2025-04-03 00:47:01.133636
1.4879963317871092,0.9436382211238163,3.1794998046874996,0.0119710083007812,1.4580688110351565,0.7960720520019531,2.1110873138427735,1.3150152618408204,11.903970654296874,24.836689406220913,-0.0282784866963108,-0.4195361371423423,0.083306175557519,0.3757984386089426,-2.133532954406738,1.0261182402021367,-0.4908113403320312,-3.5865140869140624,-1.9991583862304685,-2.913743420410156,-1.7010802795410154,1.2126631408691408,17.068263635253903,44.839052083320595,0.0548635715331396,-0.2305851666292241,0.1205556310736348,0.1188910847731649,9.509768994140623,0.9854554101199524,11.4538607421875,8.322244970703125,9.509768994140623,8.743025912475584,9.852738381958009,1.1097124694824243,76.078151953125,731.2546294980245,-0.5808058896704991,0.3716061570608317,-0.2054965535865277,-0.0299574566044084,-0.1264697551492837,0.1147242397864124,0.0154548239107894,-0.3012358350197846,-0.1121140889735288,-0.2392833081360164,-0.0117243491737023,0.2275589589623141,1.0426676890158486,0.2332500012967204,-0.2629821693952967,0.0856484308745869,-0.1232475877780244,-0.3944059107625168,0.0096925727543959,0.0788963737966383,0.1648070446348844,-0.090197549893142,0.0006661562030512,-0.0459314702003851,0.04326684538818,0.0891983155885651,0.5062787143189655,0.0505486701188651,0.026941857105709,0.0456180826030255,-0.2861310262080223,-0.0511353803395366,0.0304766462895956,0.1531535813468955,0.3356094950972302,-0.1680045944095305,0.0218499234600817,-0.0933284840474829,0.102787902130811,0.196116386178294,1.0037641667576545,0.1950787635875301,0.0312114481333888,-0.1629162419157403,-0.1247968573957362,0.1340130814377653,1,normal_operation,0.15927381353310666,weak_normal,2025-04-03 00:47:01.133636
1.438915197753906,2.6838637526466336,7.259219433593749,-1.697488977050781,1.4580688110351565,-0.3980360260009766,2.231395947265625,2.629431973266602,18.162413793945312,74.18881271278107,-0.6890707476561885,0.2579592306902635,-0.03972761571438,-0.1349787562857758,-1.6274585784912108,1.2406226228109432,-0.4908113403320312,-3.878606689453125,-0.9193734375,-2.3535002319335936,-0.7416039642333984,1.6118962677001951,13.019668627929686,33.502127335479486,-0.2416148759291781,-0.1268474454364213,-0.1540846307204033,-0.2678948636390616,8.901941047668457,2.3648224502876167,11.4538607421875,3.3542765258789062,9.166201055908202,8.345588436889647,10.539275708007814,2.1936872711181667,71.21552838134765,678.6955171003913,-0.3572122972565635,0.0934365913674622,-0.3340497884885989,0.2002146304475871,-0.1122639741192153,0.2207776626555814,0.2526064321970419,-0.4339341506675978,-0.1255704442751645,-0.2656297859666942,0.0239150076895406,0.2895447936562348,1.6338147036035462,0.4907678097016126,-0.8527034676363796,0.6345511522810212,-0.4270155599576776,0.3330049210545333,0.0858342267631562,0.2470376554609283,0.6305834618083329,-0.1187090353837364,-0.0558905054360016,-0.0840022972047652,0.1970823126727184,0.2810846098774837,1.491923432353626,0.54716094159729,0.265475955493215,-0.1585779083882032,-0.1821562123476734,-0.2565324840815741,-0.0350231623754205,0.3629313049510022,0.4652434922110075,-0.7711424206521511,-0.0160543644935356,-0.1908870599843416,0.1962163096087517,0.3871033695930934,2.355661565229904,1.0635660321296994,-0.2027426421869545,0.0151195718389529,-0.024707460613251,0.0314805382618086,1,normal_operation,0.8031633909677289,strong_normal,2025-04-03 00:47:01.133636
2.4375965652465816,3.38495928291016,7.524975817871093,-1.697488977050781,2.4337059875488283,-0.6637924102783203,4.452616537475586,5.116408947753906,26.8366064086914,139.19861089489277,-0.6189528516455549,0.1966912244496888,0.1779455534980344,-0.42367482216141,-1.4829086532592777,1.332112340869151,0.7350199096679687,-3.878606689453125,-1.2964601989746094,-2.1021090576171875,-0.7416039642333984,1.360505093383789,13.333309045410155,31.788330900857066,-0.111429821250104,-0.4714709388895711,-0.0399182162027357,0.0392601545394753,9.581595043945311,2.829645551946295,13.702016101074218,3.3542765258789062,9.513360296630855,8.998606939697265,11.215039126586916,2.2164321868896515,76.6527603515625,798.5108602864545,0.1386557712587172,-0.3323110163248562,-0.3057584260613522,-0.0866300909131912,-0.1029377872764976,0.2229452935642568,0.2526064321970419,-0.4339341506675978,-0.0932618684271778,-0.3029012255274128,0.068680704534586,0.3715819300619988,1.665523738868787,0.482406335774673,-0.7293623552028036,0.3209883228036266,-0.1688747476709161,0.2087594962340212,0.0699630552254597,0.2585403754727243,0.6305834618083329,-0.2230290967815654,-0.0319088821261559,-0.0911301685774138,0.1655065086480881,0.256636677225502,1.5378882103641636,0.5739036387684641,0.0911640727621728,-0.6011759316642235,-0.1952449529683059,0.0922472266798787,-0.0489125192090395,0.3427814985001048,0.4652434922110075,-0.7711424206521511,-0.0205842266742842,-0.1543150844368268,0.1383273355635963,0.2926424200004232,2.0263139384413553,0.9591327219948164,-0.2799823342974941,-0.1023868786523744,-0.0477557825537422,0.0278525325653244,1,normal_operation,0.5159878578115,strong_normal,2025-04-03 00:47:01.133636
2.3693618179321287,2.4692829940560665,7.524975817871093,-1.22583125,2.3774422485351563,1.275510934448242,3.0627824737548828,1.7872715393066407,22.09129871826172,93.68987143207308,-0.2928599592593531,-0.2964093256200058,0.1529104021587328,-0.0507804657889102,-1.4233528869628906,1.0077840103543614,0.7350199096679687,-2.863465185546875,-1.5466542724609371,-1.9410989959716796,-1.227028350830078,0.7140706451416015,12.856862915039065,24.332496418812113,-0.062731050996306,-0.17871918026634,-0.397297126642755,0.0906291359892087,9.873089096069336,2.250573677542091,13.702016101074218,6.737283471679687,9.944316595458984,8.203133438110351,11.42692597351074,3.2237925354003902,78.98471276855469,820.3437614157483,-0.0551962426818178,0.2665841072753153,-0.1621217004388841,-0.0416937717000887,-0.1628751916460357,0.1739367651160802,0.0531592650034914,-0.4993506898072326,-0.1108483921877314,-0.2936749621151526,-0.0452986218074864,0.2483763403076662,1.4474241979898008,0.4542586105022347,-0.5605791954806291,-0.0629830705472581,0.3370955459894453,-0.3378947474956678,-0.0164207504052138,0.1029776387348498,0.122705972602044,-0.2230290967815654,0.0007993874436615,-0.0694467841680949,0.0328415008104276,0.1022882849785225,0.6086003071076407,0.0869922809862045,0.1089138881091942,0.0859822952911347,-0.4292417775765392,-0.1182384488418632,0.0160710183986119,0.1509250929286287,0.2251607966313295,-0.3077641658096871,0.0201179173321483,-0.0353062787617173,0.1190088056751094,0.1543150844368267,0.9167641666391586,0.1842932904630699,-0.5333912534574271,0.0112056769548832,0.0619967932823026,-0.1037837347435986,1,normal_operation,0.43570998563622076,weak_normal,2025-04-03 00:47:01.133636
2.479794369506836,2.646996685653544,8.633491186523438,-1.22583125,2.1068974609374997,1.2719196319580075,2.928707180786133,1.6567875488281254,22.290017456054684,105.24777255118924,-0.0679049029103899,-0.1489053562486824,-0.1143491834362889,-0.3831499331267216,-1.9288287124633787,0.7715804145819886,-0.6919242797851562,-3.5242648437499997,-1.927332336425781,-2.231395947265625,-1.4520833068847654,0.7793126403808597,15.43062969970703,34.525732305517195,0.3271261855290422,0.082857950749271,-0.1751521229283847,-0.4469572931972925,8.526949212646484,1.7934827842448804,11.303026037597656,5.865794067382812,8.62511148071289,6.879139920043945,10.063428128051758,3.1842882080078123,68.21559370117187,607.403546979482,-0.4379417050667635,0.2383056613541397,-0.4142496287706014,0.1281110092850788,-0.1481031778433737,0.197088805111923,0.2083736603144375,-0.4993506898072326,-0.1459548240885333,-0.2424808579106625,-0.0716784074483167,0.1708024504623457,1.6396768781903976,0.4862283871020127,-0.1108397119463166,-0.4489380068227561,0.3694286505181406,0.0226849579990138,0.1079006509892295,0.2264251453973348,0.6740168462472758,-0.0815375192534755,0.037238131750566,-0.0152882848600266,0.1172434917370236,0.1325317765970503,1.1485865253010008,0.50328717561683,0.059553543604222,-0.360481960101329,-0.2425420896887115,0.0503393729201099,-0.1783966311771303,0.3076032080657557,0.1573460951607102,-0.8100459429103453,-0.1081171517552212,-0.3360424966292135,0.0538587290166951,0.3899012256459087,2.082670753219493,1.011560733021549,0.2753797706415134,-0.5230143588242799,-0.4720502408770626,-0.0637383876244718,1,normal_operation,0.22134642409556404,weak_normal,2025-04-03 00:47:01.133636
2.580650114440918,2.6209055132472985,8.633491186523438,-0.3375824340820312,2.0458453186035155,0.8475473876953123,3.1789012542724606,2.3313538665771483,21.320365783691408,108.23120578027208,0.0684795106134477,-0.0636983576610809,-0.3361238268716675,-0.2736735512796148,-2.292448089599609,1.0428369893745564,-1.335964526367187,-4.438849877929687,-1.927332336425781,-2.5815479400634764,-1.4802151763916016,1.1013327636718748,18.33958471679687,50.74261783933349,-0.0879350342677405,-0.139266969482538,-0.2525150650237125,-0.1683052721323745,8.430283320617676,1.3489953058007778,10.060435375976562,5.865794067382812,8.62511148071289,7.613561279296874,9.570821136474608,1.9572598571777335,67.4422665649414,583.1157216076568,0.2591901169346653,-0.2695639299225754,-0.4050714118128289,-0.3761966710481831,-0.1200580016949152,0.1619046082608432,0.2083736603144375,-0.392632466078419,-0.1272358347827927,-0.1951504596838697,-0.0749092650331154,0.1202411946507543,1.377211334188197,0.3250162075765871,-0.0264614247248812,-0.3661760652079944,-0.0178250391720733,0.3084525847854819,0.1212737367654838,0.274674150422332,0.6740168462472758,-0.1725344565902791,0.0416347626907044,-0.0802052068473729,0.2217967078059205,0.3020019146532935,1.7122879043229862,0.72122566511435,0.1949446924827427,-0.1642120590036058,-0.3209701937212252,-0.3665593526443773,-0.2234954061237013,0.4901101829399363,0.3697166926934553,-1.1088836155991453,-0.1103154672252904,-0.518169602543431,0.1793625576715546,0.6975321602149858,3.3329127151061178,2.321265503838528,0.2773099419985272,-0.1730476969557909,-0.4470497851824674,-0.3760637883186408,1,normal_operation,0.033656494514293867,weak_normal,2025-04-03 00:47:01.133636
1.5849614990234375,1.183706351626525,3.77326181640625,-0.3375824340820312,1.4999673400878906,0.9373299499511718,2.110488763427734,1.1731588134765625,13.354856860351562,31.3061094421408,0.1987283008794708,-0.4842152417752239,-0.3596083649451237,0.1690846405051612,-1.9844939010620115,1.134820924997175,-0.9744400756835936,-4.438849877929687,-1.4592659118652342,-2.3511060302734377,-1.2503718170166012,1.1007342132568363,15.875951208496092,41.80827660131012,-0.0887426559553867,-0.4741660405576748,-0.2815329161545299,0.3832202581537264,9.173982211303713,1.2600245420164593,11.384428894042967,7.254431030273437,9.419986431884766,8.173205917358398,9.852738381958009,1.6795324645996086,73.39185769042969,685.9968916784056,0.2969839451533874,-0.6074306468671632,-0.4859922602858271,0.0907458300792112,-0.2019785607651453,0.1343342262525648,-0.0170535987981125,-0.4315359883366133,-0.1720015316278381,-0.2588349926955712,-0.1151784075075646,0.1436565851880065,1.6158284861211625,0.4707281868130781,0.0477802308813663,0.0792384564235027,-0.3503490959310504,-0.2805434348521483,-0.0105752297234389,0.1865357384320679,0.4323353757802747,-0.1819938746736072,-0.0443660031232146,-0.1461546709494487,0.0245811638925918,0.1707358348420406,1.0795727426648891,0.2792593375688029,0.2405702116555582,-0.2692387271143829,-0.3954060533727709,-0.3136659198904273,-0.0642008040690662,0.4608270217409781,0.3697166926934553,-1.1088836155991453,0.1067848393491187,-0.182993108978184,0.2530061259188726,0.4359992348970567,2.783067385107599,1.7318662976781962,0.0997997115037215,-0.0494111453397204,-0.4982357024873736,-0.2570677666844891,1,normal_operation,0.1474781798032434,weak_normal,2025-04-03 00:47:01.133636
0.8873509902954102,1.1274223785677293,1.9105729248046872,-1.9704279663085935,1.1480196960449218,0.997184991455078,1.4562731597900391,0.4590881683349611,11.039663854980468,16.467783997388494,0.0403156282776836,-0.2810083454208699,-0.1503125172857353,-0.1076514899819366,-1.871966423034668,0.9431874084132112,-0.3615244506835937,-3.1196447631835937,-1.9871873779296876,-2.7299884429931636,-0.9888052856445312,1.7411831573486325,14.975731384277342,35.15088621086751,-0.5456829472453153,0.2882929334248988,-0.0643983250988405,-0.0315452739703478,9.39095673675537,0.996948516241876,11.384428894042967,8.137891442871092,9.178172064208985,8.723872299194335,10.01075569152832,1.2868833923339853,75.12765389404296,713.4717982051836,0.2534084225236845,-0.2197423861798531,-0.2252902236549671,-0.4231995900858967,-0.145222052265177,0.2135312559400523,0.3642542118284348,-0.4315359883366133,-0.2053093417804016,-0.2278920370638397,-0.1180095713705325,0.1098824656933071,1.890284841778286,0.5334803338195676,-0.024384320067334,-0.1661532878015964,0.1198637863077384,-0.3701106539164308,-0.021217075067183,0.0893148230540616,0.0949938745551112,-0.1819938746736072,0.009992343045769,-0.0950937979855688,0.0474969372775555,0.1425907352631244,0.5942113331217332,0.0674184151326786,0.1401434594115429,-0.6172920997364413,-0.4704287371647123,0.2978452195702871,-0.0390200995937281,0.2074741375567653,0.2733905057322415,-0.3954303221312343,-0.065016845417804,-0.1416914243890052,0.068447549863518,0.2101389742525233,1.3697503847140229,0.3565446874178244,-0.0782097097651416,-0.5915612903402891,0.0133478048371547,0.1808289809308285,1,normal_operation,0.16786013810687783,weak_normal,2025-04-03 00:47:01.133636
0.1068412490844727,2.3072043082297804,2.456450903320313,-5.149927770996094,1.0965443603515626,0.1071405242919922,1.2479776153564452,1.140837091064453,15.095441467285156,42.67685417935993,-0.2418958940886562,-0.0348497142356318,-0.108884913412418,-0.0865123633245524,-1.659181750488281,1.0361957082661035,-0.0742202514648437,-2.868253588867187,-1.696291876220703,-2.7263971405029297,-0.8696937530517577,1.856703387451172,13.273454003906249,30.612685015859594,-0.0782957976194607,-0.3039251670354839,-0.3864065281978319,0.0093614613169043,9.587879823303222,1.1008322992245003,12.11705460205078,8.137891442871092,9.425971936035156,8.978854776000976,9.795876092529296,0.8170213165283204,76.70303858642578,745.1141700569674,0.1905039746579757,0.0217137980184174,-0.072030268449704,0.1145691512143853,-0.062951761188345,0.2064853425670073,0.3642542118284348,-0.272058193326139,-0.1055191425633213,-0.2278920370638397,-0.0325084227089019,0.1953836143549377,1.576392038900527,0.3727929674538305,-0.1327265319032806,-0.1462025539111136,-0.3024247381204457,-0.0616996910443667,-0.0806049005692037,0.1643482823695057,0.0949938745551112,-0.4318024508178337,-0.0145888208468227,-0.1419578868702257,0.0266129403118982,0.168570827182124,0.973653906379737,0.2680600633086241,-0.0204800737614533,0.3698864301007714,-0.1610028212572832,-0.0085926605251362,0.1177431088893121,0.4271733430492435,1.2057427275228,-0.1898545178696122,-0.0043300153198332,-0.1338307811930002,0.0651500766584142,0.1989808578514145,1.9254578892993928,1.570724037622297,-0.1351130997706381,0.1277250957521593,-0.0200549025536646,-0.0482044334236069,1,normal_operation,0.8226555525985835,strong_normal,2025-04-03 00:47:01.133636
0.2400187164306641,2.169652621702573,2.456450903320313,-5.149927770996094,0.8918401184082031,0.0532709869384765,1.3389572784423829,1.285686291503906,12.253524096679689,38.120011864782974,-0.1978081762301055,-0.1499608280465402,-0.3083750865614932,0.0987991326612582,-1.564910060119629,0.8268829923144566,-0.0742202514648437,-2.85388837890625,-1.5083470458984376,-1.9279308868408205,-1.1629834564208985,0.764947430419922,12.519280480957033,25.061431833940244,0.419187914098463,-0.3992777023758358,-0.5153571344828459,-0.148644867507486,9.477746546936036,1.0763207641163943,12.11705460205078,8.47786807861328,9.114725720214844,8.852560638427734,9.676764559936522,0.8242039215087882,75.82197237548829,727.8891679618082,-0.0248338019978093,-0.0427081085590369,-0.1543021926013452,-0.2844440556410176,-0.1104320445608244,0.1618921092815363,0.1721347628684484,-0.3023016849446667,-0.1031209802323367,-0.2792859881292452,0.0124238131869061,0.2917098013161514,1.2796860660614913,0.3072343321080706,0.126647571667558,-0.4769831171286403,-0.4096508451488883,0.0554422824239709,-0.1135962865253179,0.1564905979192885,0.066615620305127,-0.4318024508178337,-0.041434915829789,-0.2230957124018705,-0.0022649310903742,0.2208307813114963,1.0420015328127974,0.2991473883958285,-0.3236726119040209,-0.0542790367487351,-0.3248991841946114,0.1435407627089362,0.2216967843754629,0.4278496589518661,1.2057427275228,-0.2653966312956263,0.1328315468884233,-0.0239150076895406,0.3084303220127384,0.332345329702279,2.62119142776614,1.857638358941189,-0.2033226138114464,-0.3796170969263087,-0.1062065139616407,0.189209181365525,1,normal_operation,0.282944506737663,weak_normal,2025-04-03 00:47:01.133636
0.5237316131591797,0.881935753736265,1.8052280517578123,-1.2042834350585936,0.5566518859863281,0.0532709869384765,1.073200894165039,1.0199299072265624,6.6319385986328125,8.416843810725364,-0.0672700999464318,-0.3379483921010122,-0.2702839000987075,-0.0590284574883363,-2.0204069259643553,1.3466189512242406,-0.7781155395507812,-5.305550878906249,-1.5969325073242189,-2.0626047302246096,-1.1959037292480468,0.8667010009765628,16.163255407714843,47.16341397024808,-0.0759441971605134,-0.195485117433429,-0.0501872443342663,-0.2132427990803505,8.39018044281006,1.2682727879140676,10.244788903808594,5.475539196777343,8.591592657470702,8.194155181884765,8.935160595703126,0.7410054138183604,67.12144354248048,576.0291498198056,-0.3179405619032298,0.0054555578069707,0.0736242217094639,-0.0784190061946969,-0.0915298622992445,0.2295795898239682,0.4030245028460189,-0.3468009193084915,-0.1055857581836263,-0.3013024506400897,0.0124238131869061,0.3137262638269959,1.5902480879239933,0.4886760300500815,-0.0051067552991614,-0.2895260157499965,-0.2445345535302108,-0.2850902514218618,-0.1011058577181066,0.123935751125544,0.066615620305127,-0.3241516084047483,-0.0730773354747243,-0.1974820063945492,-6.661562030509994e-05,0.1974153907742441,0.9527366016039271,0.2046597189757345,0.3913124491127658,-0.1450767366537469,-0.3863778443380732,-0.4739348478362564,0.0520934150786093,0.3481670923708648,0.5018820833788274,-0.608600307107641,0.0990574273937239,-0.152083461156605,0.3084303220127384,0.4605137831693434,2.3933660063226054,0.9914723848362772,0.0354741433796391,-0.2621306571670216,-0.0532269839911855,-0.3976129861088154,1,normal_operation,0.4023646153395237,weak_normal,2025-04-03 00:47:01.133636
1.262941375732422,1.3616083961600445,4.029441394042968,-1.2042834350585936,1.3096283081054687,0.8188169677734375,1.543062969970703,0.7242460021972655,12.51209787597656,27.59198674424345,0.2121310468661109,0.0466299716787454,-0.0822594664411684,-0.4606741138786513,-2.4651298843383787,1.7471603311911852,-0.55545478515625,-5.305550878906249,-1.9213468322753904,-3.4572271972656248,-1.0726023437499996,2.384624853515625,19.72103907470703,73.03547655636993,-0.0539330583175201,-0.596103618754566,-0.0137581564876085,0.4646312169217936,7.436988906860352,1.704932061863081,10.244788903808594,4.627991809082031,7.927201696777344,6.179434484863281,8.343792785644531,2.1643583007812506,59.49591125488281,465.7247786906609,-0.0617200964111663,-0.2485344945630061,0.0080215639625551,0.2988513829217005,-0.1893882085274762,0.2514903332683574,0.4030245028460189,-0.4691071981887049,-0.2795857584206183,-0.3356094950972302,-0.1186757275735838,0.2169337675236464,2.3211546739118476,0.7929222500534103,0.3687771619395362,-0.0264228576360043,-0.179364670218797,-0.3417896043355262,-0.0631516080492604,0.186573572955423,0.3216202148331535,-0.3241516084047483,-0.1176431854588544,-0.1746661564400431,0.0258135528682366,0.2004797093082798,1.3336447185086435,0.3103825897964798,0.1490737730728093,-0.1956551281904185,0.1795437769865339,-0.1497275053255976,-0.0350231623754205,0.3477785098008136,0.5018820833788274,-0.608600307107641,0.0325750383292071,-0.2114712866586258,0.1598108731119998,0.3712821597706257,2.2354869861994544,0.9774121102563976,-0.0068738002327173,-0.1177013179761591,-0.2255247941538293,-0.3606791153626564,-1,potential_anomaly,-0.18643325382035147,borderline,2025-04-03 00:47:01.133636
0.967856021118164,3.264074655091352,4.029441394042968,-6.885723974609375,1.407790576171875,0.872686505126953,3.2315736907958983,2.3588871856689453,22.08890451660156,92.72742905299528,-0.0780640609513433,-0.2959160733695995,0.0939813869070286,-0.2693220987290033,-1.830367169189453,1.7869543957110954,0.5889736083984375,-5.1882349975585935,-1.4437036010742188,-3.0137013397216794,-0.4932055419921875,2.5204957977294917,15.8208845703125,52.34759989118254,0.2612650218242233,-0.5568297073319158,-0.5110203239481246,0.0072754142473627,8.557176008605957,2.8120615622351526,14.324508532714844,4.627991809082031,8.226476904296874,6.692392190551757,9.363722692871091,2.6713305023193357,68.45740806884766,649.0636117764942,0.3362311343119545,-0.4819222498476853,-0.4678433568504475,-0.0192406569587427,-0.2773707890454728,0.1121084373387828,-0.1245712099705876,-0.4691071981887049,-0.2795857584206183,-0.3465344568272711,-0.1891217460462557,0.1574127107810153,2.218966312363783,0.716022850706016,-0.1169082050845791,0.1270238631560167,-0.1777477887965102,0.1264653040129642,-0.0049295559025794,0.2014481911475933,0.3216202148331535,-0.2551378257686367,-0.0289777948327303,-0.1789295561395713,0.1502182237880615,0.3291477799276328,1.5153721307010306,0.3248453939042715,0.1262440939164605,-0.5416974309356741,-0.4228101344500617,0.0876709494611587,-0.1628585377409594,0.3044532809145153,0.2483430324975137,-0.7158514557988956,-0.0311094946824943,-0.3794425732580038,0.0024980857614422,0.381940659019446,1.9938055157324532,0.95371762859789,0.0651388672989074,-0.0573654787168453,-0.1011272385741202,-0.3291178942666002,1,normal_operation,0.3614429532286785,weak_normal,2025-04-03 00:47:01.133636
0.63835401763916,3.1352022603137484,3.754108203125,-6.885723974609375,0.9313444458007814,0.4255693450927734,2.971204260253906,2.545634915161133,19.45288848876953,81.89591251929996,-0.1569687151192488,-0.3299675376574863,0.0602062784584353,0.1037688726626886,-1.5738883163452146,1.2251173043328214,0.5889736083984375,-3.414131567382812,-1.8243816650390623,-2.2786814300537106,-0.7625532287597656,1.516128201293945,13.769053747558594,31.82429473362955,0.402249373257478,-0.0635093469686344,-0.3181375162395699,-0.2304317023855153,8.92528451385498,2.689980244099236,14.324508532714844,5.66946953125,8.916006982421877,6.5960255737304685,10.046070166015625,3.4500445922851544,71.40227611083984,695.1735789352297,0.4367424270883793,-0.1395666275128117,-0.4110523065087239,-0.3953588725789016,-0.0823868684123658,0.1786955284168268,0.2651301688144058,-0.3905007662286549,-0.1012557428637931,-0.1546148547281999,-0.0156546707717048,0.1389601839564951,1.2895451778666498,0.3097575037037237,0.0392501798482652,0.0913771523977634,-0.2302535540253767,-0.1766982268795908,-0.029377488554561,0.1805972564326162,0.1931852988848685,-0.2551378257686367,-0.0040635528386127,-0.2194651610952411,0.142324272781904,0.3617894338771451,1.3680183785860895,0.2678272469180919,-0.1927349946780205,-0.2344378532537818,-0.101988918881006,0.1913641750986331,-0.1398761487356906,0.3153869842946153,0.4515206744281513,-0.7158514557988956,-0.0612863706807169,-0.33547626385662,-0.0299437213271546,0.3055325425294654,2.0220505387418273,0.9522742947806476,-0.2371940269150478,-0.2950540893798968,-0.2119428087781061,0.2188066895108654,1,normal_operation,0.6266460001137273,strong_normal,2025-04-03 00:47:01.133636
1.336862351989746,0.8876903731251348,2.942473840332031,0.5315127685546874,0.9935936889648436,0.6757634185791015,1.5640122344970704,0.8882488159179689,10.694898815917968,20.601561173652776,-0.3750986025041513,-0.3543365097168648,0.4709896230383643,-0.1200466449517621,-1.8722656982421877,0.7246258089878618,-0.6943184814453125,-2.8131869506835936,-1.9823989746093749,-2.2786814300537106,-1.5167267517089842,0.7619546783447264,14.9781255859375,32.243691262924955,0.0282471227508057,-0.3215314034316842,0.1078303207617717,-0.2021183977467802,8.554183256530761,1.672272923555297,10.232817895507813,5.66946953125,9.131485131835936,7.739855416870117,9.83777462158203,2.0979192047119133,68.43346605224609,607.7643833373393,0.3543746145253589,-0.0484320051797927,-0.1173340649871693,-0.4022638565172305,-0.0676648163249328,0.1652746755104557,0.2651301688144058,-0.2711255746418672,-0.0577557428045451,-0.2183326955500539,-0.0034640122558665,0.2148686832941874,1.171768761167185,0.2551539658669867,0.1862946732621534,0.0155223968811995,0.0270028749681772,-0.2090426465018844,-0.0232155436763367,0.1164923363228352,0.1616094948602383,-0.2547381320468059,-0.0153882082904843,-0.0844019909265959,0.043033690717112,0.127435681643708,0.7247779489197824,0.1128754071211237,-0.3727503124350327,0.2945174651735187,-0.2925992097214691,-0.1780774227377818,0.0078772971010812,0.2346667903123446,0.4515206744281513,-0.3345436451723482,-0.0565566616390528,-0.0873663860301741,0.0408686830571954,0.1282350690873696,1.456350691110688,0.441044434280933,0.1124231927968812,0.0106128174381143,-0.3601941269606449,-0.3487310619450259,1,normal_operation,0.16906879506413297,weak_normal,2025-04-03 00:47:01.133636
1.6367361099243165,0.7853236349745885,2.7078420776367187,0.5315127685546874,1.4233528869628906,1.0749965454101562,2.460640756225586,1.3856442108154297,13.09388887939453,26.365106441439075,-0.3329247825568563,0.2426242658285,-0.218181091062027,0.0159532854678372,-2.116474267578125,1.0345638757428588,-0.6943184814453125,-3.3877953491210935,-2.4289175842285156,-2.98137961730957,-0.9941922393798828,1.9871873779296871,16.931794140625,44.39828590649957,0.2734052409745021,-0.1490371998864617,-0.2885267323975343,-0.4510238537711344,9.568426934814452,0.7684352382530618,10.54645831298828,8.310273962402343,9.715670336914062,9.068038787841797,10.222043988037107,1.1540052001953107,76.54741547851562,737.1622937781739,-0.0649209567701247,0.136463634532451,-0.4994221010404001,-0.1029090917915895,-0.1889385530904166,0.0905523021303415,-0.0213169984976406,-0.2711255746418672,-0.2376179176283882,-0.2412484689350176,-0.1712687598044817,0.0699797091305359,1.511508424723333,0.3511799701200387,-0.4588147678850063,0.2710689959395888,-0.2890316257674347,-0.1454408258732245,0.0234320444423284,0.0947756150314637,0.2167672284728835,-0.0858009189530036,-0.0135895865422459,-0.0324084992784443,0.0565899694492054,0.0889984687276497,0.5703629410524977,0.0762518232907158,-0.6794170187010368,0.5454577461646642,-0.3817975314484259,0.0569423705637809,0.0002331546710679,0.1792592025507378,0.3081638595315178,-0.306698315884805,-0.0260467075393046,-0.0778736601366935,0.0746761103620474,0.1525497704987409,1.09569372277873,0.2570713284818169,-0.6397521829502449,0.2908754034852285,-0.1557481680790987,0.1350262896552248,-1,potential_anomaly,-0.1452061683334327,borderline,2025-04-03 00:47:01.133636
1.8650830932617184,1.3979124120176956,4.965574243164062,0.354341845703125,1.4604630126953126,1.0492588775634766,2.460640756225586,1.4113818786621093,14.920664746093747,43.46155245155066,-0.2927504114001097,-0.228837461023323,-0.0179358714495656,0.1052197947252785,-2.0548235748291015,0.9503282410392212,-0.9145850341796874,-3.3877953491210935,-1.999158386230469,-2.98137961730957,-1.0307038146972656,1.9506758026123048,16.438588598632812,41.003389515121185,0.3033472830319064,0.2105796552978507,-0.1717748288965239,-0.3119918614526966,9.27753143310547,0.7544100557830479,10.54645831298828,8.396465222167969,9.102754711914065,8.57962164916992,9.928754284667969,1.3491326354980462,74.22025146484376,693.1337921962127,-0.0544631863607865,-0.1220473927921258,-0.5624287106350516,0.0847918539389498,-0.2199814321526058,0.0886742348350279,-0.0479632466196915,-0.3554609499481581,-0.2398828487187625,-0.2547048242366533,-0.1940179941386825,0.0606868300979707,1.7598514572208468,0.4500396033239137,-0.1661880515110931,-0.1365354531262461,0.0864185218664092,-0.1777763782400469,0.0782400460483717,0.1242945146447234,0.3081638595315178,-0.0528928025222709,0.0419012251719249,-0.0259800919189995,0.1517170752449269,0.1776971671639264,0.8723981635159441,0.1725650494113496,-0.2015607968557894,-0.0400698723804499,-0.2276255300426244,0.0472016111988834,-0.1557972819886159,0.399251326577219,0.2115712100890836,-1.123938745788104,-0.0337741194946994,-0.2044766465265875,0.0671818530777206,0.2716584996043081,2.0907978588967184,1.4693953187896758,0.0123294098832352,-0.1833462604872062,-0.0432596373538106,-0.1490197754900546,1,normal_operation,0.3684370634641394,weak_normal,2025-04-03 00:47:01.133636
1.4290391159057616,1.7346517436466342,4.965574243164062,-0.3519476440429687,0.7457938171386718,0.2956839050292968,1.884835256958008,1.5891513519287108,12.13620821533203,40.40935573220023,-0.2048685797315158,-0.4237179554915657,-0.1890908623451455,0.4428903529340327,-1.3263877197265623,0.5999505824305521,-0.1101332763671874,-2.1906945190429687,-1.429338391113281,-1.7286135986328124,-0.9989806427001952,0.7296329559326171,10.6111017578125,16.953960675201508,-0.3121877127534627,-0.1821906191399484,-0.0708023617376209,0.2054058788634037,8.973168547058105,0.803441459259197,9.900023864746093,7.357381701660156,9.121908325195312,8.534730368041991,9.607931262207032,1.0732008941650406,71.78534837646484,649.3061756189553,0.108966327039032,-0.1822333186767079,-0.2553853906235803,-0.4337137118442691,-0.2361357200765991,0.11948346605289,-0.0275788668063226,-0.3897013787849934,-0.2534724352610085,-0.3400727416576737,-0.1423575805920565,0.1977151610656172,1.889085760612793,0.5602910156488492,-0.0340232957089683,-0.7421473529539129,0.0378090808175731,0.328374270699561,0.0058788284919274,0.1573511777982733,0.3081638595315178,-0.2613996940773186,-0.0241814701707611,-0.0711121746757231,0.0981914243297573,0.1693035990054804,0.9780505373198756,0.1983516302315306,0.2570412883225407,-0.4067787124143211,-0.5020334257562057,-0.0644446975080931,-0.1561636679002941,0.4100288264127808,0.2378177644893036,-1.123938745788104,-0.1005229710404367,-0.2109050538860322,0.1647071212044267,0.3756121750904589,2.4062894366618,1.5400858372921256,0.0167308579503596,-0.5530069569360302,-0.2138349790342289,0.2238787154158298,1,normal_operation,0.11307129855968778,weak_normal,2025-04-03 00:47:01.133636
-0.3214215728759766,3.0857880469320067,3.5098996337890624,-7.876923461914062,0.2466027709960937,-0.3711012573242187,1.0115502014160156,1.3826514587402343,14.743493823242186,77.00319758478814,-0.1049603646027628,-0.0314472516617275,-0.3611421998181614,0.0435234060292683,-0.4902127899169921,2.214364987409622,5.1690813842773435,-2.085349645996094,-1.429338391113281,-1.619677423095703,-0.5841852050781249,1.035492218017578,14.259865087890624,41.14976701491053,-0.343169148563311,-0.1571677401098282,0.1665982392468336,-0.1167754941807132,8.66341870727539,1.1100843220015597,9.744400756835937,6.459556079101562,9.175777862548829,8.122329132080077,9.481637124633789,1.3593079925537117,69.30734965820312,610.2968871961829,0.1364152144713663,0.0282595170396728,-0.388691628726429,-0.3385618178752304,-0.1973820829640915,0.1596943296435129,0.0782067382382191,-0.3897013787849934,-0.2220964780972936,-0.3388070448718763,-0.089731240551006,0.2490758043208702,1.7354701401891703,0.515695724764276,-0.2786721894407508,-0.2989921365070359,-0.1129558615997394,0.2263043323165372,-0.0859841119088427,0.1353350215954118,0.1101822359846801,-0.3246845333671894,-0.0702128638016039,-0.1338973968133053,-0.0028311638629678,0.1310662329503374,0.9791163872447576,0.2056706845678639,-0.2366979446488707,-0.5156220852100866,0.1208257842348853,0.304940720096352,0.0052293261939524,0.1976945193581129,0.2631317002052519,-0.3324119453225841,6.66156203051535e-05,-0.1385604902346643,0.1787630170888085,0.3173235073234728,1.4215773373114118,0.3128837506934243,0.0608978616861647,-0.7245756866290332,-0.1438051295279118,0.3774402910078614,1,normal_operation,0.4510436115316656,weak_normal,2025-04-03 00:47:01.133636
1.2458826889038082,5.826574181310914,14.803348864746091,-7.876923461914062,0.6153098266601562,0.172981069946289,0.9080009796142576,0.7350199096679687,26.578032629394528,284.009522918633,0.0316602572117244,0.0323710103062966,-0.0044070843140048,-0.0606271280618378,-0.082300682067871,2.5797944890549545,5.1690813842773435,-2.085349645996094,-1.2150573425292968,-1.8854338073730463,0.2693476867675781,2.1547814941406247,17.604564807128906,53.29690406421721,-0.3315092138029678,-0.0552351808678262,-0.0085246990952958,-0.1477181620085507,10.08048681488037,3.5684814622735823,19.033903198242182,6.459556079101562,9.051279376220702,8.456320263671875,9.738415252685549,1.2820949890136717,80.64389451904296,914.8021949725374,0.0229940603215973,-0.1007454589061278,0.0735097756957938,-0.0063014736743605,-0.177080972676104,0.1703015328803707,0.0824701379377473,-0.3665191429188092,-0.226493109037432,-0.3103288671914345,-0.0632848392898706,0.2470440279015638,1.7380015337607653,0.4828822638825528,-0.6485654683715124,0.3874732105148962,-0.3461293555359494,0.3007468699351559,-0.1401093034067585,0.182681614538335,0.0354395100023276,-0.5463813177426523,-0.0682143951924501,-0.1398261870204616,-0.0451653905668761,0.0946607964535855,1.1917534472587232,0.4240255135316796,-0.236065827675449,-0.0041990055221482,-0.0342796407875625,-0.0677633880545059,0.1339473585285342,0.2488981640905783,0.6532327727120761,-0.1517503830550795,0.1223062788802133,-0.0840356050149177,0.2573361412387059,0.3413717462536236,1.7611837696269497,0.6391375275554569,0.0161816326814856,-0.1788743653150668,0.1209752990145085,-0.2517602233397743,1,normal_operation,0.3963542786544547,weak_normal,2025-04-03 00:47:01.133636
2.880523872375488,4.600591411663475,14.803348864746091,0.5913678100585937,0.8559270935058594,0.6153098266601562,1.7501614135742187,1.1348515869140623,23.044190979003904,235.70287293117445,0.0060525434127375,-0.2476792739704641,-0.3018365068357774,-0.1228850490346791,-1.2261305252075194,2.0510192449216618,3.303998291015625,-4.314351391601562,-1.47482822265625,-2.167351052856445,-0.7338228088378906,1.4335282440185544,16.417040783691405,45.68060806307753,0.1457957369042747,-0.1944091718711632,-0.4165648969536612,-0.1157946594584573,11.521796214294431,3.0942293827221325,19.033903198242182,8.482656481933594,11.066000073242186,9.444526998901363,11.68310555114746,2.2385785522460946,92.17436971435546,1138.608347813044,-0.3292412333738378,-0.1239686321474047,-0.0364601738498273,-0.0178869495562861,-0.2777205210520748,0.2305179230145209,0.0824701379377473,-0.6990643194820036,-0.2845153143231977,-0.3932320066611651,-0.1272025269726401,0.266029479688525,2.386704444292093,1.0421376051549165,-0.2199240055698378,-0.3078748784082437,0.4304744537891197,-0.0816747109857484,-0.0896479710256247,0.2045124218935383,0.1476202145961616,-0.5463813177426523,-0.05768912718424,-0.1186091119532787,0.0430669985272646,0.1616761104805433,1.24238131869062,0.3988967153421748,0.2288689602864055,-0.2228570016218415,-0.2785092141559174,-0.3013587932985442,0.0367385145982775,0.3472078199553133,0.6532327727120761,-0.5706294035337186,0.1033874427135572,-0.1667055898135805,0.1935516847965467,0.3602572746101272,2.2827840766160947,0.9752239095440728,-0.2517728030093272,-0.1448023696138548,0.4662514798905366,-0.4633912197850247,-1,potential_anomaly,-0.12281469004083956,borderline,2025-04-03 00:47:01.133636
0.9433154541015626,1.3277564406918811,3.560177868652344,-1.5466542724609371,0.978031378173828,0.5111620544433594,1.2521674682617188,0.7410054138183594,10.639832177734377,21.22224969396488,0.0015704776219132,-0.1556313246881195,0.0340745684234827,-0.0551796904403271,-1.3530232131958009,1.3229033597890274,0.05746083984375,-4.314351391601562,-0.9133879333496092,-1.4742296722412107,-0.5955576629638671,0.8786720092773436,10.939107385253903,28.64596091830229,0.2352088332699832,-0.3389731185847132,-0.1364919430883777,-0.1439783006361607,10.792163258361816,1.3934068220803748,12.528857287597656,8.05648858642578,10.990582720947266,10.17116720275879,11.68310555114746,1.5119383483886697,86.33730606689453,947.2989629356388,-0.2861502946406964,-0.0193637289721691,-0.2110192928614068,-0.0529990438587308,-0.2720748472312152,0.2087922648474464,-0.018385911204215,-0.6990643194820036,-0.2355528333989293,-0.3223862944666625,-0.1619758807719164,0.160410413694746,2.1765987778497218,0.9409514588481228,-0.1568264579817069,-0.3151358803706586,0.2784178107669545,-0.2911604297008533,-0.0693801685477898,0.1423100618833611,0.1476202145961616,-0.2688606435514929,-0.0646837673162783,-0.1946508425315813,0.0430669985272646,0.2377178410588459,1.0802388988679406,0.2005260920077263,-0.0973448652067506,0.0325502907906886,-0.1860940645305696,-0.1454688315449624,-0.0111248085909562,0.2963807705187454,0.398894334387101,-0.5706294035337186,0.090197549893142,-0.2043767230961298,0.1511175346621807,0.3554942577583105,2.0003338465223557,0.7037225799957649,-0.4197607492791109,-0.1693567323458512,0.5772679180079591,-0.4537656709617492,1,normal_operation,0.3643703245300154,weak_normal,2025-04-03 00:47:01.133636
-0.101454295349121,1.6833578655460082,2.2840683837890623,-3.134009973144531,0.0550666381835937,-1.302445703125,1.237802258300781,2.5402479614257807,11.31260284423828,22.75189342032319,-0.123108211045675,-0.1280221204288806,0.0983628678013191,-0.3999286463267871,-1.031601640319824,1.398583939080254,1.6903063720703124,-2.9281086303710935,-0.9133879333496092,-2.196680023193359,-0.4758475799560546,1.7208324432373043,11.748347546386718,24.161911831710334,-0.5088629679745217,-0.1900047199654309,0.3722319884530267,-0.1713367827666131,10.06133320159912,1.246526291459087,12.528857287597656,8.05648858642578,10.268730920410157,9.194332925415038,10.48899747314453,1.2946645477294911,80.49066561279297,822.2740287111965,-0.3299654756477501,-0.3296377884193759,0.1350146963892332,0.1418044486781812,-0.16124310894856,0.1141148082195804,-0.018385911204215,-0.3519969376922914,-0.1927189895427326,-0.2306232774963499,-0.0376711332825493,0.1929521442138005,1.2899448715884805,0.3121722371071105,-0.066464106262607,-0.4334284110694392,-0.228901119268042,0.235798422533973,-0.2054425730210119,0.0954496540506184,-0.0602205207558348,-0.3172235838930152,-0.2242281779470577,-0.2799521443322965,-0.1446891273027359,0.1352630170295605,1.6435405841680952,0.4105382981430124,0.3537848337778781,-0.1243872489328,-0.3763027048721991,-0.1178457172694486,0.1985811641295838,0.2226625589045086,0.4940214401828224,-0.1717350691466176,0.2815176114094671,0.0401026034236864,0.3392400464038596,0.2991374429801731,2.1372955618696974,0.7121047510797158,-0.0452676738369954,-0.5330414997246312,-0.2079085099913707,0.3611141618133648,-1,potential_anomaly,-0.0090836616192429,borderline,2025-04-03 00:47:01.133636
-0.728435855102539,1.5216840913323249,2.2840683837890623,-3.134009973144531,-1.2629413757324215,-1.3952210174560546,0.0269347686767578,1.4221557861328125,11.573570825195311,22.7691301505028,-0.1172459064002206,-0.4563407764483191,-0.0423713357735077,0.0586677742709144,-1.1851298217773436,1.5887661363570451,1.6903063720703124,-2.9281086303710935,-1.5119383483886717,-2.5989059020996095,0.0383072265625,2.6372131286621094,13.268665600585935,31.42968424400713,-0.2370605915060843,-0.3961594230050835,0.2163620229794221,-0.0238653640679413,9.612420390319825,0.7370821496342826,10.577582934570312,8.231265307617187,9.609128363037108,9.194332925415038,10.22743094177246,1.0330980163574228,76.89936312255858,743.5353268443664,-0.1868801034845842,-0.319339798619513,0.1265197835218288,-0.3516735794320678,-0.0137061638777798,0.2216245166420376,0.3928989285596395,-0.3519969376922914,-0.0315091884043251,-0.1524165392581307,0.0555241195243234,0.2079406587824541,1.386004596068474,0.3944422824404909,0.0680685984764766,-0.0667977432257365,-0.3326080532697946,-0.2213499153451595,-0.1770143570557989,0.1569006309858872,0.1309663095198798,-0.3398728947967583,-0.2202312407287501,-0.3103288671914345,-0.1010558960028777,0.2092729711885567,1.6780474754861512,0.4476151248611794,0.1342379805886172,0.1998963063118206,-0.0921187127198975,-0.1551539335017674,0.2124205592479739,0.481935008401721,1.0715788682282743,-0.5974088828963796,0.3100290969000614,-0.1375612559300874,0.4656431859328382,0.6032044418629257,3.5843200661376677,2.2190707705151116,-0.3465320390984482,0.096481003199914,-0.2262783095961541,0.0206629142658438,-1,potential_anomaly,-0.22173008226349955,borderline,2025-04-03 00:47:01.133636
-0.0320224472045898,1.2074498863134986,1.93451494140625,-1.5298948608398435,0.076614453125,-1.3162123626708984,0.7547720733642578,2.070984436035156,8.482656481933592,11.671685320667612,0.485286829228376,-0.1906164724936768,-0.5130530148995822,-0.3426295406902599,-1.0465654006958007,1.0350703356739166,0.2035071411132812,-2.91134921875,-1.0606313354492187,-1.511938348388672,-0.0311246215820312,1.4808137268066408,8.779537487792968,17.333357901805414,-0.3754189570389924,-0.0595062158878975,-0.2477314226640752,0.218293337140995,9.649829791259766,0.6237492697664564,10.577582934570312,8.231265307617187,9.757568865966796,9.560047229003906,9.873089096069336,0.3130418670654293,77.19863833007813,748.0662252145494,-0.1386062439915581,-0.5922252139097504,0.1303426791850991,0.1211651865793958,-0.0398194870373897,0.2296433239759824,0.3928989285596395,-0.2939081167862207,-0.098591118051588,-0.2027446403986542,0.0555241195243234,0.2582687599229777,1.5949111813453525,0.4345731823572711,0.1587090756253032,0.4865219784861509,-0.2361176434024013,-0.0684988578810077,-0.0518602604075414,0.139988628904952,0.1309663095198798,-0.3398728947967583,-0.0119241960346176,-0.1345968608265092,0.0277787136672379,0.1623755744937471,0.8638713641168876,0.178290422657811,-0.0957633812504687,0.2689069118710611,-0.3467448309926731,-0.1722480953681676,0.0978416923231554,0.4687272962423717,1.0715788682282743,-0.5974088828963796,-0.0111248085909562,-0.1366619450559681,0.2779203679129901,0.4145823129689583,2.7756064356334247,1.834226199994745,-0.4380772500422965,0.4334036658065026,-0.3930881502849547,0.0999124819071413,1,normal_operation,0.07232782352048717,weak_normal,2025-04-03 00:47:01.133636
0.6060322952270507,1.3474482273415107,2.2026655273437497,-2.3870190551757813,0.8463502868652344,0.2070984436035156,1.4227543365478517,1.2156558929443362,9.99100352783203,17.463134945791577,-0.3263407616492851,0.0278180645187387,-0.1899886383990884,-0.2240727073395355,-2.2987328689575195,1.4470401320932813,-0.0359130249023437,-4.754884497070313,-2.096123553466797,-3.2166099304199216,-1.2575544219970702,1.9590555084228511,18.389862951660156,59.02478357371368,0.5590005670982982,-0.1533765746142112,-0.4894135466600464,-0.3574103660247807,9.03990691833496,1.5503545350296073,10.024522351074218,5.073313317871094,9.66539210205078,9.169193807983396,9.873089096069336,0.7038952880859384,72.31925534667968,672.9881302115773,-0.0211183808182478,-0.0962680146780993,-0.0638039396975098,-0.16373430607018,-0.0929620981358048,0.164665145994298,0.2659295562580673,-0.2939081167862207,-0.0852013783702575,-0.2027446403986542,-0.049295559025794,0.1534490813728602,1.2755558976025734,0.2860524959610758,0.1809347180341141,-0.1648262255660804,-0.2358152050343522,-0.3299464296301195,-0.0197015697052413,0.0978073948582647,0.0904640123743625,-0.1922526802005967,-0.0024647779512896,-0.0745428791214371,0.0661493109629911,0.1406921900844282,0.6455053607566809,0.0796355067024879,0.1711506511573848,-0.6429849271837978,-0.3236593568704067,0.1876709464446397,0.1326816617427368,0.2008226451250163,0.4584486989398845,-0.1013889741044034,0.0892649312088702,-0.049062404354726,0.2662626343595929,0.315325038714319,1.4686079652468311,0.4634732652625782,0.1373768204939976,-0.380667668461786,-0.3503877165598354,-0.0620699464084358,1,normal_operation,0.20020015210833564,weak_normal,2025-04-03 00:47:01.133636
1.545756446838379,2.1973593421898157,6.112396838378906,-2.3870190551757813,1.3634978454589843,0.8206126190185546,2.1434090362548828,1.322796417236328,17.140089685058594,57.74200857321014,0.055335100158829,-0.017873315304532,-0.004626736032049,0.0060603599103354,-2.410063246154785,1.3890052998905993,-0.3327940307617187,-4.754884497070313,-2.346317626953125,-3.2166099304199216,-1.3778630554199218,1.838746875,19.28050596923828,61.901924588722515,0.4684957569099667,-0.1428878400993304,-0.3460743426623703,-0.2181387810597482,8.105569720458984,1.566372013984028,10.024522351074218,5.073313317871094,8.755595471191405,7.52737001953125,8.932766394042968,1.4053963745117182,64.84455776367187,545.2302542353113,-0.2808081989513445,-0.1328273164429351,-0.0461509336211674,-0.1606275812643794,-0.0939613324403817,0.1680288504381801,0.2659295562580673,-0.3682511490467425,-0.0918629404007702,-0.1538487750946909,-0.0694800919782475,0.0843686831164434,1.2835497720391884,0.2964994125883859,0.1790688906638351,0.1485873983168798,-0.4391918575859288,-0.1420610749623082,0.0187522971158932,0.1592934346229287,0.3148254215620306,-0.1922526802005967,0.0043300153198332,-0.0829364472798831,0.1060187597156097,0.1889552069954928,1.085834610973571,0.2058083756887359,0.1099467936103977,-0.3730608634472296,-0.1606869550070694,-0.0179944483140521,-0.0561569679172221,0.4424659898375909,0.4584486989398845,-1.0372052081508287,0.0135229709219408,-0.198181470407753,0.2116045178992361,0.4097859883069892,2.624655440022007,1.5914380576689202,0.1710092078891099,0.0193620028066623,0.1135635397411833,-0.1516309670731591,1,normal_operation,0.4447084367027747,weak_normal,2025-04-03 00:47:01.133636
1.9419968215942385,1.6866035279974865,6.112396838378906,0.28730419921875,1.5071499450683592,0.9804255798339844,2.124255422973633,1.1438298431396483,15.535974572753908,52.92786492588552,-0.01438028598286,-0.3319966092884213,-0.3132492747627187,0.069812685933805,-1.7337012771606446,1.2172410843241257,0.2466027709960937,-3.342305517578125,-1.774103430175781,-2.8060043457031245,-0.9038111267089844,1.90219321899414,14.362815759277344,35.899167806360175,-0.4546150772328171,0.0175817237156018,0.2279482401003015,-0.3205759291461721,8.933364944458006,1.4237297627396244,10.83376251220703,6.119579443359375,8.790311395263672,8.377311608886718,10.024522351074218,1.6472107421875002,71.46691955566405,654.6561253454547,0.254181624421448,-0.2447771064033004,-0.4364644197940608,-0.0586768469244391,-0.1310495790452612,0.1103912473895257,0.0217166922194714,-0.3682511490467425,-0.1057189894242366,-0.1538487750946909,-0.0808713630504242,0.0729774120442667,1.0918300168010324,0.234881757345245,0.0833371939150449,0.3697622887635917,-0.1263147826948256,-0.0155890915403156,-0.0150551301889586,0.159373371307648,0.3148254215620306,-0.1815941809517764,-0.0683476264330603,-0.1202078868406017,0.0414682236399415,0.1616761104805433,1.06425114999471,0.2050122274157755,0.2910135745325647,-0.4915989267843207,-0.3650035737166635,-0.059385806430873,-0.0950771440804926,0.4275199780403208,0.4075543650267675,-1.0372052081508287,-0.0780735069976089,-0.198181470407753,0.156513399906896,0.3546948703146491,2.5315268028354394,1.5345039596007928,-0.0140454878471711,-0.2530346834617762,0.1351332031583113,-0.272196310987521,1,normal_operation,0.4980368836546605,weak_normal,2025-04-03 00:47:01.133636
0.6676829879760742,1.1728237224447358,2.1260510742187497,-1.7812860351562498,1.1324573852539062,0.1167173309326172,1.370680450439453,1.2539631195068357,9.694122521972655,14.570528450894278,-0.0435137081435063,-0.5126705643184496,0.130598115671937,-0.0446710080069031,-2.1446061370849607,1.4848595442713035,0.2466027709960937,-4.42448466796875,-2.3355437194824216,-3.1501708343505856,-1.341351480102539,1.8088193542480464,17.650054638671875,54.43314679548848,-0.4262069301986768,0.0306330247456724,-0.3996027204006651,0.4038514879430473,10.378564921569822,0.8745609660556796,11.27429561767578,8.504204296874999,10.716446630859371,9.847351428222655,11.00734213256836,1.159990704345704,83.02851937255858,867.835733716703,-0.3078338616353439,-0.1541692472841007,-0.1050743545704538,0.1766897086674667,-0.0176364854757823,0.1764283852757629,0.3497320066019172,-0.2928422668613387,-0.0620857581243784,-0.0982247321399098,0.0445325421739774,0.1427572743138872,1.1099494655240272,0.2515041660076043,0.1808822761810456,-0.5017217199051321,-0.2293453188278729,-0.087944366670367,-0.0691969755919507,0.1638822373598538,0.1544150078672845,-0.4170137831100955,-0.0399693721830762,-0.122939127273112,0.0206841501047418,0.1436232773778538,1.0164211346156289,0.2531648732251559,-0.2937034518602092,-0.3195413358030233,0.1177919918608625,0.2036052037928377,0.1988975883260332,0.3684748811119935,0.950871364235384,-0.2055758042616221,0.13629555914429,-0.1180095713705325,0.4047565089739522,0.5227660803444848,2.5568407385513874,1.40267190921928,-0.2262279603045781,-0.0433377495528974,-0.3540707904039492,0.1732862479681451,-1,potential_anomaly,-0.08303347977509312,borderline,2025-04-03 00:47:01.133636
