accel_x_mean,accel_x_std,accel_x_max,accel_x_min,accel_x_median,accel_x_q1,accel_x_q3,accel_x_iqr,accel_x_sum_abs,accel_x_sum_squares,accel_x_acf_lag1,accel_x_acf_lag2,accel_x_acf_lag3,accel_x_acf_lag4,accel_y_mean,accel_y_std,accel_y_max,accel_y_min,accel_y_median,accel_y_q1,accel_y_q3,accel_y_iqr,accel_y_sum_abs,accel_y_sum_squares,accel_y_acf_lag1,accel_y_acf_lag2,accel_y_acf_lag3,accel_y_acf_lag4,accel_z_mean,accel_z_std,accel_z_max,accel_z_min,accel_z_median,accel_z_q1,accel_z_q3,accel_z_iqr,accel_z_sum_abs,accel_z_sum_squares,accel_z_acf_lag1,accel_z_acf_lag2,accel_z_acf_lag3,accel_z_acf_lag4,gyro_x_mean,gyro_x_std,gyro_x_max,gyro_x_min,gyro_x_median,gyro_x_q1,gyro_x_q3,gyro_x_iqr,gyro_x_sum_abs,gyro_x_sum_squares,gyro_x_acf_lag1,gyro_x_acf_lag2,gyro_x_acf_lag3,gyro_x_acf_lag4,gyro_y_mean,gyro_y_std,gyro_y_max,gyro_y_min,gyro_y_median,gyro_y_q1,gyro_y_q3,gyro_y_iqr,gyro_y_sum_abs,gyro_y_sum_squares,gyro_y_acf_lag1,gyro_y_acf_lag2,gyro_y_acf_lag3,gyro_y_acf_lag4,gyro_z_mean,gyro_z_std,gyro_z_max,gyro_z_min,gyro_z_median,gyro_z_q1,gyro_z_q3,gyro_z_iqr,gyro_z_sum_abs,gyro_z_sum_squares,gyro_z_acf_lag1,gyro_z_acf_lag2,gyro_z_acf_lag3,gyro_z_acf_lag4,prediction,prediction_label,decision_score,confidence_category,evaluation_timestamp
1.1677718597412108,0.7858123554422793,2.528276953125,-0.1556231079101562,1.1468225952148436,0.7254431030273437,1.6071078643798826,0.8816647613525389,9.653421093749998,15.849537394953517,0.3715909994145969,-0.2100524832052002,-0.4356470820649117,-0.4281567232285467,-0.512059880065918,1.4190560874216098,1.9800047729492187,-3.0980969482421874,-0.8451531860351562,-1.1294646331787108,0.3872621185302733,1.5167267517089842,10.072406384277343,18.2074040001716,-0.1083854982670374,-0.4969970322252084,0.0028518936938399,0.0725680203085196,9.13627353515625,0.9694432657483618,10.802637890625,7.802703210449218,9.005789544677734,8.52216080932617,9.78151088256836,1.2593500732421887,73.09018828125,675.2905148376105,-0.0232190943219006,-0.4012813006047409,-0.0361617094986711,-0.18515731498678,-0.1014389358196322,0.3238287803780357,0.3761117922427475,-0.6658897405700503,-0.1155781012293955,-0.3179230479062189,0.1529494642205717,0.4708725121267907,2.3042343063543456,0.9212394936107648,-0.1629284846772555,-0.3793977151461736,0.0816442140644254,-0.0832516830227761,-0.0640009572081508,0.0755978390292003,0.0584885146279015,-0.1870566618167968,-0.0662159265832963,-0.0950937979855688,-0.0350731240906493,0.0600206738949194,0.6873399703083009,0.0784892463155555,0.0252937687566766,-0.2467107828561497,0.229542996262726,-0.2392994828654626,-0.0970589587845701,0.2692698465593695,0.2980382852451386,-0.5461148552614318,-0.0798721287458473,-0.2405823127319664,0.0885321593855138,0.3291144721174802,1.8532465568886352,0.6554135339716103,0.1995242662335413,-0.1782602128243743,-0.2459073712837043,-0.3639571176010554,1,normal_operation,0.7466182028067965,strong_normal,2025-04-03 00:47:01.078492
0.5147533569335937,1.1843980342288551,2.528276953125,-1.2665326782226562,0.6440402465820312,-0.1843535278320313,1.1366472381591797,1.321000765991211,8.7723548828125,13.34215777567664,0.0831748204599086,0.0757679616708721,0.1616049811521213,-0.3579477775848155,-0.914285758972168,1.9485596863853132,2.559401574707031,-4.158728283691406,-0.8511386901855469,-1.6633716033935546,-0.1657984649658203,1.4975731384277342,13.907917443847657,37.06242640372275,-0.4163674813141918,-0.0460070082705546,0.0077971568542599,0.1535148365386754,9.324517640686034,1.5584059519984996,11.269507214355468,6.232106921386718,9.822212310791016,8.481459381103514,10.30344684448242,1.8219874633789068,74.59614112548827,715.0020667415153,0.0095445639823022,-0.4091359795388866,-0.2001132621623297,-0.1687179066568651,-0.089897779601769,0.328769911039828,0.3761117922427475,-0.6658897405700503,-0.0860673814342241,-0.2784199850652786,0.0985245024312828,0.3769444874965615,2.1929862204447836,0.9293701214597176,-0.1539982247224375,-0.3819508854756862,0.0196145166929616,-0.2094986253440746,-0.0698797857000782,0.1245902848014504,0.1867901993355763,-0.2030444106900273,-0.105385911322711,-0.1669720522948009,-0.0030976263441883,0.1638744259506125,0.99097396765907,0.1632473881311632,-0.0536904465474412,-0.3867381976580137,-0.3182495295129662,0.0110935739604475,0.0380541730993038,0.2117653564862171,0.2980382852451386,-0.4323353757802747,0.0672151608878732,0.0125237366173638,0.1837258808015404,0.1712021441841765,1.41025268185954,0.3703414903840511,0.0831175717911101,-0.585081904154998,-0.1257999080896263,0.0603092774674348,1,normal_operation,1.175440827288813,strong_normal,2025-04-03 00:47:01.078492
1.527799934387207,2.1272459645878605,5.2073886108398435,-1.2665326782226562,1.5035586425781249,-0.1843535278320313,2.94307239074707,3.1274259185791013,16.876727502441405,54.87478426695112,0.4920351686823962,0.12679571425283,-0.1290469932056845,-0.3189344697589494,-0.2941875289916992,2.3150455101442904,3.519476440429687,-4.158728283691406,-0.4417302062988281,-1.2336124053955078,0.584185205078125,1.8177976104736329,14.51125626220703,43.56785613002784,-0.302372700567169,-0.0020775109879461,-0.0711201799102113,-0.345618903724353,9.263465498352051,1.614729474248741,11.269507214355468,6.232106921386718,9.737218151855467,8.785522991943358,10.155604891967773,1.3700819000244149,74.10772398681641,707.3531545133313,-0.0716893479636933,-0.4049983076880429,-0.302008874598636,0.3948439636161689,-0.0749092650331154,0.201138369873409,0.3441362944962864,-0.3702496176558963,-0.0879326188027677,-0.2006795561691953,0.0001665390507628,0.2008460952199581,1.3312465561776592,0.3685443345850706,-0.1198692856349375,-0.5308764316411285,0.1702800935140926,-0.0399622774719242,0.012590352237669,0.1291435506668908,0.1867901993355763,-0.2030444106900273,0.0234486983474047,-0.0504613323811337,0.1092163094902557,0.1596776418713895,0.8550781022366108,0.134692589186563,0.0655524641887483,-0.3280892293250487,-0.2989759575831304,0.0087176011809545,0.0947773737891195,0.2176328026996463,0.4836294034152226,-0.2617993877991494,0.0672151608878732,-0.0004663093421359,0.2130034459256438,0.2134697552677797,1.5229663114158152,0.4507742991461254,0.1669856947116567,-0.3461719146723341,-0.2808175294255436,0.1433234167360423,1,normal_operation,1.195250402929164,strong_normal,2025-04-03 00:47:01.078492
2.822464482116699,2.068982108359228,6.138733056640625,-1.0558429321289062,2.5007436340332028,2.040458364868164,3.892971899414062,1.8525135345458985,24.691401721191404,97.97594174016706,-0.0044686531511054,-0.6707385419298848,-0.0886318562094405,0.285044212908829,0.8008604553222656,2.6294561576986712,4.065354418945312,-3.114856359863281,0.5650315917968749,-0.939125601196289,3.5721488769531247,4.511274478149414,18.631677319335935,60.44333723326756,0.0136192118433868,-0.4050705940119399,-0.2666746343452164,0.1543923654543566,8.588300630187987,1.2765857867979535,10.69968721923828,6.749254479980468,8.690952026367187,7.489062792968749,9.457695108032226,1.968632315063477,68.7064050415039,603.1086318843355,0.1385416504651127,-0.0473785331364399,0.1514104200481544,-0.1696669700605172,-0.1977484688757697,0.2247176796051967,0.0218499234600816,-0.6573629411709941,-0.1189088822446517,-0.2731573510611735,-0.0317756508855455,0.241381700175628,1.625687597926321,0.7168199397588408,-0.3837250708847337,0.5258100102616747,-0.3192435802908441,0.1667100561798629,0.0933284840474829,0.1019476494998272,0.234886677195878,-0.0949938745551112,0.0993905054952495,0.0309096478215789,0.1642075040521382,0.1332978562305592,0.9366156214900864,0.1528282333851272,0.2677167611053919,-0.3594082703302999,-0.4321911840869857,0.1239507737343211,-0.0296939127510104,0.2727180722079804,0.4836294034152226,-0.3126937217122665,-0.0888652374870395,-0.2730907354408685,0.1042867535876763,0.3773774890285448,1.880825423694958,0.6020550029064148,0.3127309794501796,-0.5036243735578418,-0.3796004624363187,0.002027257644307,1,normal_operation,0.05642170859743678,weak_normal,2025-04-03 00:47:01.078492
1.9078794479370116,2.64319441408593,6.138733056640625,-1.1324573852539062,1.9488801513671872,-1.0582371337890626,4.13718046875,5.195417602539062,21.770475695800783,85.01184558812398,-0.3623872645592741,-0.185347903744649,0.0017880066368412,-0.0583676985692075,0.6488286499023437,2.8288401950951214,4.115632653808594,-3.114856359863281,0.1280897888183593,-1.6813281158447266,3.813963244628906,5.495291360473632,21.040244189453123,67.38652373055922,-0.1939181014475312,-0.3148368912746985,0.1378721977719708,0.1229990609097785,8.224381977844239,1.2935201755957226,10.417171423339845,6.016628771972656,8.65623610229492,7.397484579467773,8.802880953979493,1.40539637451172,65.79505582275391,554.5092268972983,-0.3220819792318558,-0.0574392891208791,0.1685699765009828,-0.3485111267168124,-0.1241382084386043,0.5309271865252042,1.0585222066484692,-0.7111883623775367,-0.1774640124928584,-0.4960865244122814,0.009159647791955,0.5052461722042364,3.416049009246916,2.3783517774873237,-0.1840400152015711,-0.1648871943320629,-0.2142180717229229,0.1354010637801681,0.0729774120442666,0.1640234546413348,0.234886677195878,-0.2520735072346008,0.1394264932986309,-0.0263464778306777,0.2088732774667259,0.2352197552974036,1.2848820844452908,0.2578351707292535,-0.3411562320892478,0.0827597219135796,-0.3015624980026141,-0.0831178287146624,-0.0445991577942825,0.2705693754406386,0.4651102609703972,-0.3126937217122665,-0.0888652374870395,-0.2933751918237796,0.0470972435557248,0.3404724353795045,1.8916171541843885,0.6015749744183726,0.3229773965951367,-0.2011578639050907,0.0665547386531037,-0.0616810189934012,1,normal_operation,0.14418685810907128,weak_normal,2025-04-03 00:47:01.078492
1.080084223937988,2.2814004647160595,4.446032482910156,-2.013523596191406,1.0223241088867183,-1.0821791503906248,2.7539304595947263,3.836109609985351,17.063475231933595,50.97096008965102,-0.3543157821221095,0.2356320006987954,-0.3953946922250116,0.077551962194839,-0.6835445739746093,2.6328591080847916,4.115632653808594,-4.070142822265625,-1.1899182250976563,-2.5546131713867184,0.2615665313720703,2.816179702758789,19.32599580078125,59.19344214108139,-0.3436607760651467,-0.2980753109703822,0.2472115307687488,-0.1055435616949237,8.77205560760498,2.0927248320455107,13.268665600585935,6.016628771972656,8.395268121337889,7.52078596496582,9.29668504638672,1.7758990814208984,70.17644486083984,650.627654444591,-0.1856133797852031,0.1571923399571056,-0.62378722777276,0.0383366890563549,-0.1847750768213462,0.7316266794365806,1.0585222066484692,-1.5556079653653276,-0.1406255744641233,-0.5566068154594894,0.2055758042616221,0.7621826197211116,4.690405825683998,4.55535541662185,-0.0707930722106143,-0.113197097053728,-0.4911225902391904,0.0340610276339084,-0.1034873661440149,0.2700396994406688,0.2074410416301657,-0.70239510049726,-0.0321753446073763,-0.2051094949194862,0.0415015314500941,0.2466110263695804,1.5955773375484037,0.6690485938034569,-0.5123063467372504,0.4093212238293628,-0.373947720379678,-0.0083813663839364,0.113479709189784,0.2619494651174255,0.4651102609703972,-0.288845329643031,0.0763415008696756,-0.0797055896950845,0.3403392041388943,0.4200447938339788,1.9171975523815572,0.6519613333848265,-0.4026262092252164,0.0914915761891533,-0.0487487370949,-0.2256859291131119,-1,potential_anomaly,-0.72626871037896,strong_anomaly,2025-04-03 00:47:01.078492
0.8248024719238279,1.2946644093683164,2.327164013671875,-2.013523596191406,1.2701239807128906,0.2466027709960937,1.7118541870117183,1.4652514160156245,10.649408984375,18.851640404613345,0.0227681846240132,-0.460658047505134,-0.2698040297800523,-0.0530247716822754,-0.2238578552246094,2.1228297401914697,2.8131869506835936,-4.070142822265625,0.3842693664550781,-1.1737573638916017,0.9415198028564452,2.1152771667480468,13.383587280273437,36.45214756149717,-0.5376190722264181,0.3296673689231625,0.0050600230552132,-0.1875853241642485,9.43614729309082,1.9270005956966911,13.268665600585935,7.098807922363281,8.916006982421873,7.988253839111327,10.531494552612305,2.543240713500978,75.48917834472655,742.0336562617647,-0.1434841653472209,-0.0670540359027563,-0.243999769509025,0.0274794157280521,-0.2239117537506084,0.5618341272954419,0.3634548243847733,-1.5556079653653276,-0.0700796325609936,-0.2949406589009501,0.0833361410017139,0.3782767999026641,3.0601883655769275,2.926352480492031,-0.0788777374798112,-0.119718227516651,-0.037993302968857,-0.0571237710437071,-0.158045559173914,0.274197327854159,0.1314992344823208,-0.70239510049726,-0.0321753446073763,-0.265796325017457,-0.0004663093421358,0.2653300156753211,1.6947013805624325,0.8013005870156507,0.034323905434213,-0.0056486362692454,-0.1905389897452244,-0.2390830792477896,0.0551077718974164,0.2205205439143744,0.454451761721577,-0.3228192959986458,0.0543583461689837,-0.0797055896950845,0.1884555898432045,0.268161179538289,1.4646110280285236,0.4133294144943137,-0.0697161290565803,-0.0042306089673384,-0.1439095385474158,-0.3804832566367264,1,normal_operation,0.500859014216092,strong_normal,2025-04-03 00:47:01.078492
1.9425953720092772,1.24464003753927,4.3263223999023435,-0.0119710083007812,1.6424223388671872,1.356913790893555,2.5641899780273434,1.2072761871337887,15.56470499267578,42.58244481918094,-0.2665252154903889,-0.1216115532971033,0.3913216209051621,-0.3652321358416954,0.0404021530151367,2.5087801886435885,2.2840683837890623,-6.399701037597656,0.6823474731445311,0.4399345550537109,1.0564414825439452,0.6165069274902344,13.122619299316408,50.36488295119054,-0.2488749378826467,0.0015406761456029,-0.320746361034133,-0.0207067924170501,9.487921903991698,1.1225304789262018,11.233594189453123,7.40526573486328,9.38407340698242,8.92498523864746,10.34893667602539,1.42395143737793,75.90337523193358,730.24589385891,-0.4688394426162368,0.1416386678055518,-0.2241836361598316,-0.0223764737207562,-0.0552243492329503,0.1512825483806146,0.2398162330984575,-0.226493109037432,-0.0700796325609936,-0.1844253448147443,0.0143556661757549,0.1987810109904992,1.1066186845087709,0.207489105541887,-0.4607038235042618,-0.0601077649182127,0.2591524705482693,-0.4185842422164771,0.0332078867221058,0.2121547576142222,0.2511408885503291,-0.4948208276264839,0.0939946402505342,0.0556240429547811,0.1322986219259823,0.0766745789712012,1.312327720011003,0.3688992393511806,0.0503465233835885,-0.4376312936824512,-0.165322564146716,-0.0186860209229877,-0.1066682620135847,0.2056848938780924,0.1877228180198481,-0.3767779484457988,-0.0486294028227427,-0.3308797860555661,0.0231822358661842,0.3540620219217504,1.4686079652468311,0.4294751495251273,0.3281006693858262,-0.3758293618962777,-0.5731429952694146,-0.1707401025311418,1,normal_operation,0.32543908694845314,weak_normal,2025-04-03 00:47:01.078492
2.638110954284668,1.500533031945775,4.553771557617187,-0.1915361328124999,2.7437551025390623,1.6879121704101565,3.8468835174560545,2.158971347045898,21.487959899902343,73.68983029661715,-0.6196891385708196,0.2417257960161255,-0.1908956298943935,0.0981957186605166,0.0095768066406249,2.947611579954128,3.1459809814453124,-6.399701037597656,0.7278373046875,-0.545877978515625,2.1888988677978514,2.7347768463134763,18.392257153320312,69.50804593204083,-0.0848909948917025,-0.1621377691562806,-0.0859769472631905,-0.2541867471916404,9.83089129180908,2.5073526042610927,14.86320390625,5.932831713867187,9.731232647705076,8.602965115356445,10.746972702026367,2.1440075866699217,78.64713033447265,823.4659253877002,-0.2589811783287445,-0.0968564683588632,-0.0963963198146052,-0.2051042750727612,-0.0368717458388878,0.2953491461744647,0.6658897405700503,-0.3671852991218605,-0.1358292498021541,-0.1889218991853403,0.0143556661757549,0.2032775653610952,1.8119448722994564,0.7087251502975428,-0.3013629409287902,-0.0431256772444134,0.0050010018012455,-0.2277336319227571,0.0691470138767219,0.1021106644503448,0.2511408885503291,-0.1171102604964134,0.0907970904758881,0.0080271822467678,0.1083169986161365,0.1002898163693687,0.809513017947904,0.1216631785804679,0.3191316401789428,0.1874827362689228,-0.2459525727800594,-0.2447787454688691,0.0258968223936181,0.3155856845788368,0.605402757332995,-0.3767779484457988,-0.0196516079900124,-0.1533158501322499,0.1474536755453988,0.3007695256776487,1.921594183321696,0.8021197577694377,0.2744448916452285,0.3372514698385733,-0.2714383871037659,-0.3200163311482805,1,normal_operation,0.747462927431783,strong_normal,2025-04-03 00:47:01.078492
2.436399464416504,2.5376272992644475,7.259219433593749,-0.5219359619140624,2.34272632446289,-0.0335188232421874,3.9037458068847655,3.937264630126953,20.918139904785157,99.0047572814496,-0.3605870992129678,-0.0334709274654592,0.0400307930447771,-0.2601713142810521,0.1882441055297851,2.7819737137693563,4.972756848144531,-2.887407202148437,-0.3088520141601563,-2.569576931762695,2.404377017211914,4.973953948974609,19.428946472167965,62.19850869896298,-0.1333569068670679,-0.1342990318575103,-0.3737634751447085,0.2891675894271216,9.328408218383789,2.7645544338312056,14.86320390625,5.932831713867187,9.223661895751952,7.350199096679687,10.416572872924805,3.066373776245116,74.62726574707031,757.2956888514079,0.0062023542849203,-0.0327667821364865,-0.0207182086385374,-0.3966152525258348,-0.0629184533781925,0.3551130186019139,0.6658897405700503,-0.6351133239890816,-0.0654831547599399,-0.2240949467064475,0.040901990867348,0.2649969375737955,2.1159785633720567,1.0405119020485365,-0.6948306112934219,0.2361517329281441,-0.0394352490594708,0.0438449807680185,-0.0567232006898157,0.1487614170320154,0.1396263401595463,-0.3734471674305424,-0.0429004594765018,-0.1189754978649569,0.0340738897860724,0.1530493876510294,0.9480735081825682,0.2027798455509625,-0.2989649542030306,-0.2491442786887719,0.1330083347792122,-0.1911732643776547,0.1424075423072854,0.2286302479092853,0.605402757332995,-0.1401592651219873,0.0794058194037114,-0.0131565850102625,0.2178996940180706,0.2310562790283332,1.494987750887662,0.5804135869205005,-0.258864229861712,0.335181449133753,-0.2179723668103486,-0.1031303175271297,1,normal_operation,0.7346858981495501,strong_normal,2025-04-03 00:47:01.078492
1.6349404586791991,2.7424368879361913,7.259219433593749,-1.762132421875,0.5793968017578125,-0.1161187805175781,3.1968577667236326,3.312976547241211,17.64766043701172,81.55192310191435,-0.2548815071483973,0.0055097606414673,0.0451863855464544,-0.3455082707308276,0.2986766571044922,3.1858831367004634,5.983109948730468,-2.887407202148437,-0.7709329345703124,-2.330755316162109,1.724423745727539,4.055179061889648,20.80561242675781,81.912472849692,-0.2612047254011091,0.1051866012484875,-0.1090799535233066,-0.2341420679904834,8.366836976623535,2.274208330968449,11.647791076660155,5.358223315429687,8.196549383544921,6.150704064941406,10.354323629760742,4.203619564819336,66.93469581298828,601.4078762083292,0.1995703201879484,-0.4441982521097057,-0.4877196368070545,0.0482372817399209,0.0374046708013288,0.4157240040427141,0.9784502310417066,-0.6351133239890816,-0.016853751937197,-0.0528261869019657,0.040901990867348,0.0937281777693137,1.938514550879198,1.3938044554804985,-0.1138322066807663,-0.0658050779525462,-0.0057833946448657,0.0292920840962169,-0.0125403905224401,0.1670579034792684,0.1505513018895872,-0.3734471674305424,0.0209173047758099,-0.0871998469794113,0.1398261870204617,0.227026033999873,1.0523935695803974,0.2245248360747509,0.1403247626007897,-0.1074721897308249,0.1721750318072501,-0.3391591709701348,-0.0772408117437948,0.203581223888004,0.1593445637698639,-0.3968958657779471,-0.0207840735351996,-0.2039104137539939,0.0958265698089252,0.2997369835629191,1.329647781290336,0.379291661748624,0.0279019001058701,-0.299686317278848,0.020887834754195,-0.0354412850740742,1,normal_operation,0.558109509442982,strong_normal,2025-04-03 00:47:01.078492
1.0746972702026367,1.4864500054141991,3.995922570800781,-1.762132421875,1.1204863769531248,0.756567724609375,1.4377180969238283,0.6811503723144533,12.121843005371094,26.916062729414975,-0.4748214551442227,-0.1314259031754725,0.1128705248613152,0.0423996605353403,0.7365162857055664,2.3195906618098445,5.983109948730468,-2.272097375488281,0.3136404174804687,-0.7529764221191406,1.523310806274414,2.2762872283935547,13.558364001464842,47.38365661971966,-0.5167335445887132,0.0654700869170366,-0.061805438719052,0.107216341819155,9.229348124694823,2.209904043067195,11.647791076660155,5.358223315429687,9.55765302734375,8.305485559082031,11.244368096923829,2.9388825378417955,73.83478499755859,720.5163414909807,0.2334443143541138,-0.4411041597147355,-0.4077037141675798,-0.1562590856526533,0.0307431087708161,0.3679639424627461,0.9784502310417066,-0.2845819299435029,-0.0718116386889269,-0.1285015315685901,-0.0214502297382508,0.1070513018303392,1.7109555919168835,1.090740813516971,0.028039827024466,-0.1317228845701032,-0.0892086578176625,-0.2529423908777306,0.0161542879239933,0.1083645480860548,0.1505513018895872,-0.217033690954104,0.0276454824266276,-0.0139226646437715,0.0714785605874013,0.0854012252311728,0.6602940284644194,0.0960306904018094,0.1521507958919549,0.1393105683428231,0.0155931397228342,-0.115911074673085,-0.0087766079752004,0.2412824612693561,0.3101623281406717,-0.3968958657779471,0.0847350690281216,-0.1243713631096722,0.1219732007786876,0.2463445638883599,1.582120982246768,0.4663540397099897,-0.2283759813773327,0.0494441584265443,0.350446540665969,-0.3911088716146411,1,normal_operation,0.7048335735554732,strong_normal,2025-04-03 00:47:01.078492
1.2114660400390624,0.613700719598874,2.1739351074218747,0.2633621826171874,1.2713210815429687,0.9038111267089842,1.6053122131347657,0.7015010864257812,9.6917283203125,14.754228315232822,-0.2627769998782418,-0.5672790088883476,0.2635455984414951,0.199006148788506,0.9867103591918944,1.6636968812626332,4.61602080078125,-0.814028564453125,0.7912836486816406,-0.1873462799072265,1.609502066040039,1.7968483459472655,10.963049401855468,29.931877165276873,-0.3048539253566115,0.1013056488488161,-0.1895929077102629,0.1065726907422334,9.976937593078611,1.806472527291522,12.811373083496091,6.385335827636719,9.95987890625,9.077017044067382,11.292252130126952,2.21523508605957,79.8155007446289,822.4210138243543,0.2269050612227892,-0.4176389954364743,-0.411243701044432,0.1032943630593342,-0.1348466694026534,0.1293498922532208,0.1365620216255105,-0.2845819299435029,-0.1518169986753846,-0.2277588058232294,-0.0924291731733638,0.1353296326498656,1.3518973984722489,0.2793201509992668,0.0341435946009246,-0.565288533594831,-0.2239059129967664,0.3208030131006083,-0.0179029479570029,0.0955269374289748,0.0836692191032396,-0.217033690954104,0.0109915773503459,-0.0606202144776656,0.0544582695994413,0.1150784840771069,0.5962098017308872,0.0755672905608834,0.2649956920278292,-0.1051329166245084,-0.5246314212803797,-0.3003956988238117,0.0078439892909286,0.1786420724550908,0.3101623281406717,-0.2691271060327134,0.0146554364671279,-0.131865620393999,0.1219732007786876,0.2538388211726867,1.242914243653061,0.2557961457523689,0.4011459877298592,0.1667420102376523,0.0233980158227018,-0.2746661145860363,1,normal_operation,0.5073061409780544,strong_normal,2025-04-03 00:47:01.078492
0.1289876144409178,1.323206096763928,2.1739351074218747,-2.142810485839844,0.2130839477539061,-0.4632780212402343,0.6823474731445313,1.1456254943847657,8.267178332519531,14.140097433539104,0.299785097355025,-0.2621117458457049,-0.070987603245118,-0.0787506081667736,1.2060790863037107,2.021947510615316,4.61602080078125,-1.2976572998046874,0.6260837341308593,-0.1352723937988281,2.2451626068115234,2.3804350006103516,13.656526269531248,44.34318798482134,0.1514476707161612,-0.2847848722630727,-0.4402542071368563,-0.0733382185139172,10.18313821105957,2.538404182940297,12.892775939941403,6.385335827636719,10.59913074951172,8.051101632690429,12.83112524719238,4.7800236145019515,81.46510568847656,881.1183969720822,0.0548998315244491,-0.3926387037618681,-0.2743598501762457,-0.1246276771507821,-0.1929521442138005,0.4498963520604689,0.6223231248904972,-1.0988912725533764,-0.2406822361624241,-0.2792859881292452,-0.0793725115935588,0.1999134765356863,3.06138744674242,1.917098060432166,-0.4502107851829355,-0.0149254001512113,-0.00191657056985,-0.1583845113547238,-0.0336575421591654,0.2027715353418027,0.3518637064516812,-0.3534624813390043,-0.0381041348145327,-0.1407588057047335,0.0751757275143359,0.2159345332190694,1.3092634014769673,0.3379930055125437,-0.31163299576266,-0.4839583753848909,0.2366472452581881,0.1355781192533074,-0.2118210186652278,0.185338165542242,-0.0174532925199432,-0.6055359885736051,-0.1419578868702258,-0.2955401994836962,-0.0892982390190227,0.2062419604646734,1.6945681493218223,0.6337470364395064,-0.6127264847644184,0.3364662336804475,-0.00423128395209,-0.2541923367748417,1,normal_operation,0.08240478185941558,weak_normal,2025-04-03 00:47:01.078492
0.1062426986694335,1.5298100579930145,3.0837317382812497,-2.142810485839844,-0.0131681091308594,-0.9391256011962892,0.8535328918457031,1.7926584930419922,9.732429748535155,18.81285059645723,0.3286254450739423,-0.1899866175000374,-0.0644288985228159,0.0579061592374363,0.149338328552246,2.4483252206878414,4.103661645507812,-4.127603662109375,-0.0658405456542969,-1.3491326354980466,1.620874523925781,2.970007159423828,15.425841296386718,48.13278658104757,-0.1968422979299598,-0.0656241732041701,-0.035948092787517,-0.2791581804022686,9.33439372253418,2.255433193006878,12.892775939941403,6.742071875,8.633491186523436,7.907449533081055,10.563217724609371,2.6557681915283187,74.67514978027343,737.7430804432215,-0.489066263573205,-0.0747845996164664,0.3608168410601207,-0.2972714742415726,0.0418512634566961,0.6894596935229113,1.3768116404663664,-1.0988912725533764,-0.0653499235193296,-0.3058989284411435,0.3005696788167333,0.6064686072578769,4.326151613855562,3.816849577965028,-0.2783170047790203,-0.2039263670362932,0.3475623598133651,-0.3519502236785392,-0.0713786371569436,0.1943152494857089,0.3518637064516812,-0.3534624813390043,-0.0832695253814088,-0.1606435683658139,-0.0375379020419391,0.1231056663238748,1.3381745806893923,0.3428266082006073,-0.2135003970215669,-0.474855122018941,0.1581076101064576,-0.0088528684349121,-0.0382373660551429,0.3045490145488858,0.3827733542732602,-0.6055359885736051,-0.0098591118051587,-0.1737335377557713,0.1981148547874479,0.3718483925432192,1.9076049030576183,0.7536975874042596,0.1034054825162404,0.0938124378970188,0.118419189189603,-0.4165131156902941,-1,potential_anomaly,-0.20729529092808918,borderline,2025-04-03 00:47:01.078492
0.7820061172485351,1.4042048547832215,3.0837317382812497,-1.6472107421875,0.8008604553222656,0.2663549346923828,1.532887612915039,1.2665326782226562,11.19768116455078,20.66659873288718,-0.1489773025157938,-0.2781447377858381,-0.3592750562467774,0.1109650316767551,-0.7996633544921876,1.85959547938603,2.985569470214843,-4.127603662109375,-0.7817068420410156,-1.569399188232422,-0.2226607543945312,1.3467384338378907,12.368445776367189,32.78045461976525,-0.4285494059303775,-0.1251505842482349,0.0844415546634807,-0.1470833587156111,8.679579568481444,1.2761391032197429,10.196904870605469,6.643909606933593,9.050082275390622,7.885901718139649,9.721057290649412,1.8351555725097637,69.43663654785155,615.7090599709361,-0.0225083239195402,-0.1816565232360275,-0.3750827717139634,0.3168462712030331,0.2321887445735204,0.5220627476893867,1.3768116404663664,-0.33028024547282,0.0340405819759199,-0.0813376723925601,0.3268828488372585,0.4082205212298186,3.0139571250851693,2.6116890050529573,-0.0751197741846517,-0.2496209966241996,-0.1113866086396528,-0.0935344531510655,-0.0893981624494805,0.1159557343205894,0.034107197596225,-0.3591914246852452,-0.0694134763579423,-0.1094161563511712,-0.0277454058570854,0.0816707504940858,0.8468177653187751,0.1715021101693667,-0.2419498087083255,-0.3956376191117413,0.052735576554954,-0.0073351577991292,0.1325650844072028,0.2373842091506545,0.4729709041664023,-0.2110382851266426,0.1986477797498889,-0.0542251149283734,0.2688606435514928,0.3230857584798663,1.907338440576399,0.5913981148637644,-0.0226538655474559,-0.2214568633567201,-0.0192034113078005,-0.1752370540930393,-1,potential_anomaly,-0.12541890024388724,borderline,2025-04-03 00:47:01.078492
2.6967688949584963,2.927773348919555,7.611167077636718,-1.6472107421875,2.076969940185547,0.8451531860351562,4.009689230346679,3.1645360443115234,24.86857264404297,126.75535404367436,0.2099627763976359,0.3043227772377197,-0.0004188546679534,-0.4045077654726279,-0.6057330200195312,0.5434732296092476,0.01915361328125,-1.7669208251953124,-0.4872200378417968,-0.8152256652832031,-0.2029085906982421,0.6123170745849609,4.88417138671875,5.298205142751102,-0.3956760533312632,0.2895156908028801,-0.079691229840666,-0.193932307334019,9.712378309631346,1.8382729371541675,12.42351241455078,6.643909606933593,9.892841259765625,8.837596878051755,10.618284362792968,1.7806874847412129,77.69902647705077,781.6763185669669,-0.2798948828309171,0.1394414865441769,-0.0089892885310636,-0.2061449544265078,-0.0907637826657356,0.33730098711585,0.727575804972598,-0.4869601844304789,-0.1218399695380774,-0.2780202913434478,-0.0727442573731987,0.205276033970249,2.181261871271081,0.976080161224958,0.1336329733612436,0.1186181718581547,-0.0310384656343299,-0.2115305992788207,-0.018619065875283,0.2297748764867273,0.3617228182568401,-0.3591914246852452,-0.0067281776508178,-0.1579123279333037,0.13239854535644,0.2903108732897438,1.523366005137646,0.4251453078284714,-0.0746997354154086,-0.1691655252255768,-0.1319559071559504,-0.2763066773174317,0.1247210951162741,0.2282442030430067,0.4729709041664023,-0.2110382851266426,0.1619425729617639,-0.0123571975666011,0.247177259142174,0.2595344567087752,1.84005666406822,0.5412061423179202,0.0889131459593595,-0.448817571842003,-0.3390457957663023,0.1208346425996033,1,normal_operation,0.6193941556156219,strong_normal,2025-04-03 00:47:01.078492
3.365948258972168,2.3163401297956763,7.611167077636718,1.177947216796875,2.4660277099609376,1.7782932830810545,4.009689230346679,2.231395947265625,26.927586071777345,133.56031423183694,-0.2128858180738291,0.3025324465739639,-0.2740883943522926,-0.2455299026300218,-0.3657143035888672,1.3353565858409056,1.8698714965820311,-2.2864625854492187,-0.2801215942382812,-1.1073182678222655,0.2597708801269531,1.3670891479492189,8.667010009765624,15.335393305585358,-0.7372191268302375,0.3652550654562894,-0.0739732466918249,-0.0748609032503825,8.973767097473143,2.1681391208043435,12.42351241455078,6.548141540527343,8.408436230468748,7.113771682739257,10.535684405517578,3.4219127227783215,71.79013677978514,681.8345853348304,-0.1671130879428868,0.1324292849778673,0.2665352892006968,-0.4519255998189643,-0.2857477032988426,0.1717052568441029,0.0504946401912863,-0.521067382026704,-0.2897113327069976,-0.3824402761717345,-0.2313893571298588,0.1510509190418756,2.386970906773313,0.8890755613477019,-0.43029699278351,-0.1610874511248438,0.1045109856001709,-0.1169494632702703,0.0558405437207727,0.2650124643316393,0.4776339975877611,-0.3282817768636663,0.0444992343638249,-0.1100490047440698,0.2196317001460039,0.3296807048900738,1.8147427283522717,0.5867981805932796,-0.3478437008378615,-0.1730067034417291,0.3030607882236185,-0.4150743747324846,0.1218566234431537,0.1659140083908318,0.3583920372415837,-0.1514839205738589,0.1424908118326668,0.0208506891555047,0.218332695550054,0.1974820063945493,1.4323690678008425,0.3390119588582366,0.0438616275198551,-0.1521218452251403,-0.0613061296957224,0.1162171536722286,-1,potential_anomaly,-0.05182910889494141,borderline,2025-04-03 00:47:01.078492
1.7555483673095702,1.75933741045636,5.480327600097656,-1.1851298217773436,1.362300744628906,1.1605892547607422,2.13862063293457,0.978031378173828,16.41464658203125,49.417745550356706,-0.3593312175486475,0.129889470225864,-0.2862586625195913,-0.0655042332090962,-0.7861959701538086,1.626018993793666,1.8698714965820311,-2.4684219116210935,-1.149216796875,-2.2942437408447267,0.4177881896972656,2.7120319305419924,12.452242834472656,26.09633497331083,-0.4534232626031474,0.2720316697906415,-0.0783631287278048,-0.0350174872239757,8.15195737762451,1.3972666514062335,10.931924780273436,6.548141540527343,7.717709051513671,7.113771682739257,9.029731561279297,1.91595987854004,65.21565902099609,547.2541054539095,-0.1035132004861172,-0.0857114083235896,-0.2445546724581399,0.232271683537539,-0.0807214779047377,0.2687889878591928,0.3954303221312343,-0.521067382026704,-0.026779479362661,-0.2834494643983157,0.0610199081994963,0.3444693725978121,1.7228131723311964,0.6301078159159548,-0.0107031054313978,-0.1991905520872328,0.0977595575506362,-0.2344147111831018,0.0193851455087919,0.2258358347424227,0.4776339975877611,-0.2683277185890519,-0.0084601837787511,-0.1067848393491186,0.1167771823948877,0.2235620217440064,1.3770781029475867,0.4110208649616313,-0.5090640902065291,0.1757754543546665,-0.3807865528455398,0.1529305132061209,-0.0596043262680124,0.2250628122867641,0.3233522209610869,-0.3713154675807783,-0.104386677018134,-0.1965493877102773,0.1251374427431811,0.3216868304534585,1.6498024524767771,0.4336475614743275,0.2601502682647414,-0.0972738028324086,0.1659138903939396,-0.1766340211384199,1,normal_operation,1.1186383689091777,strong_normal,2025-04-03 00:47:01.078492
2.099116305541992,1.7844167235754138,5.480327600097656,-1.1851298217773436,2.154781494140625,1.2791022369384764,2.718017434692382,1.438915197753906,19.163190087890623,60.723458460543014,-0.2624787558359918,0.0122947803911795,-0.1503900459453392,-0.1536713797159793,-1.0486603271484374,1.3657031837995626,1.5897499023437498,-2.4684219116210935,-1.6184803222656248,-2.1523872924804683,-0.0089782562255859,2.1434090362548823,12.028469140625,23.71866934380264,0.0480168971534074,-0.1864822004408688,-0.0717821687087646,-0.2448005064843364,8.679878843688964,1.463720957330036,11.166556542968747,7.098807922363281,8.129511737060547,7.617751132202148,9.427169036865234,1.8094179046630856,69.43903074951172,619.8622062563713,-0.3464499748273121,-0.2851976799071704,0.0988676335085746,0.3770820350367527,-0.0542917305486785,0.2322716361706559,0.3954303221312343,-0.3972955594997779,-0.0313093415434097,-0.1600440277830678,0.0099590352356165,0.1700030630186843,1.4103859131001504,0.4551816398029111,0.1508914313488112,0.230573249874603,0.0407106737418718,-0.1856594419227949,0.0130733154848811,0.164172049871047,0.1793292498614021,-0.2648637063331853,0.083869065964155,-0.0539253446370004,0.1311994641909477,0.1851248088279481,1.1448560505639138,0.2169869882930304,-0.1388761600497266,-0.1807398422371373,-0.2101405317868291,-0.1673470908009347,-0.0491956355953363,0.2418469590419216,0.2623323127615904,-0.3713154675807783,-0.0063950995492921,-0.2953736604329334,0.169869831778074,0.4652434922110074,1.8420551326773735,0.4872812972756323,0.3516156039121907,0.0054918838580641,-0.1673331866447383,-0.4647110714242833,1,normal_operation,0.9006398081821061,strong_normal,2025-04-03 00:47:01.078492
1.098639286804199,1.9445783548903437,3.1794998046874996,-2.7820623291015623,2.050633721923828,-0.2890998504638671,2.548029116821289,2.8371289672851563,15.98608448486328,39.9071460865414,0.2119145780623732,-0.0395285913311882,-0.4851894406051775,-0.2082414723576932,-1.078288572692871,1.682265713027032,1.5897499023437498,-4.039018200683594,-1.4233528869628906,-1.8279729675292968,-0.1789665740966797,1.649006393432617,14.037204333496092,31.941793401811022,-0.6741952751412429,0.2456709682697496,0.028381422081464,-0.0617920738699885,9.12968948059082,1.3328075458079998,11.166556542968747,7.098807922363281,9.153032946777344,8.057087136840819,10.104728106689452,2.047640969848634,73.03751584472656,681.0208477293872,-0.152472028254805,-0.0762738672696141,0.0487182671423933,-0.2804038757583991,-0.0461812787765293,0.3502853346168946,0.6080673821452,-0.399427259349542,-0.1077174580333904,-0.3597243496476862,0.0821370598362217,0.4418614094839079,2.402558961924713,0.9986602092568428,0.1004465653517887,-0.2310999309784413,-0.422675492317742,-0.0900410540941843,0.0216500765991662,0.1802541999547212,0.2121041350515246,-0.2900444108085233,0.1009892803825726,-0.0466309342135889,0.1391267230072579,0.1857576572208468,1.2830168470767471,0.2636824193445313,0.2043358147770231,-0.2174962676593899,-0.4625263749565853,-0.2820054267979802,-0.0018985451786961,0.2341740289635009,0.288845329643031,-0.3112281780655537,0.0154548239107895,-0.204210184045367,0.196882465811803,0.4010926498571701,1.803950997862841,0.4387286425183531,0.3110740658468508,-0.1446789354795866,-0.3073344793113491,-0.4962073377592423,1,normal_operation,1.0136188049006734,strong_normal,2025-04-03 00:47:01.078492
1.46195938873291,2.6820340648344523,6.552929943847656,-2.7820623291015623,1.4341267944335936,-0.2890998504638671,2.6773160064697263,2.9664158569335934,18.89264530029297,74.64505583389375,0.2196803024273795,0.3558500435625608,-0.1786414915246032,0.0540727280664377,0.2639607330322264,2.19131775686679,4.00310517578125,-4.039018200683594,0.8667010009765623,-0.794874951171875,1.1665747589111328,1.961449710083008,14.106636181640624,38.97239024114087,0.0350156357914809,0.096547916124353,0.0294670636308893,-0.1775267411427833,9.374496600341796,2.30631750862608,13.72595811767578,5.351040710449219,9.566032733154296,8.589797006225586,10.104728106689452,1.5149311004638673,74.99597280273437,745.6022956833209,0.1622639950125723,-0.601423176182123,-0.2542424589807511,0.1748389498921393,0.0225327335682092,0.3457735184330939,0.6080673821452,-0.399427259349542,-0.122173047639603,-0.2016454826636196,0.3308464782454136,0.5324919609090333,2.462779482680548,0.9605364010532564,0.1043057917833368,-0.1316800270073687,-0.0566428218639847,0.1171816774534321,-0.0236152373981675,0.1954507834017752,0.2121041350515246,-0.3222863710362048,-0.0208506891555047,-0.1455551303667026,0.1644073509130536,0.3099624812797562,1.3661531412175458,0.3100695053579157,-0.2965747551832993,0.2461404870048658,-0.4149682284339617,0.0608433142040632,0.0088765314056581,0.2201775340259361,0.3468009193084915,-0.3112281780655537,-0.0417679939313146,-0.1473870599250936,0.1811278716096405,0.3285149315347341,1.5674655457796398,0.3884555143963034,0.1916843909048112,-0.2393921035429625,-0.0373935390746648,-0.1555786052655118,1,normal_operation,1.2956162437382739,strong_normal,2025-04-03 00:47:01.078492
0.7574655502319336,4.378471840586393,6.552929943847656,-9.327809667968747,1.774103430175781,0.0682347473144531,2.8335376647949215,2.7653029174804686,27.3729075805664,157.95815774876925,-0.3384570882053021,-0.1235864765220293,0.026024939525716,-0.0373436572964921,0.3869628433227538,1.890982447123709,4.00310517578125,-2.5043349365234375,0.8511386901855469,-1.1510124481201172,1.1665747589111328,2.31758720703125,13.060370056152342,29.804438859539214,0.3487467929965148,0.0076023224755485,-0.3228545535235227,-0.451217177879013,9.445125549316408,3.7806345198580793,17.068263635253906,5.351040710449219,8.21690009765625,6.830657336425781,10.86009873046875,4.029441394042968,75.56100439453125,828.0287521207366,0.3349487721385081,-0.4143716838044481,-0.5515943656119978,-0.1407049973195219,-0.1915365622823166,0.4047763744216507,0.3049663097568718,-0.9696569691614298,-0.1405589588438181,-0.400026799932288,0.0992572742546392,0.4992840741869273,2.7977228215747267,1.6042413438469132,-0.6109682252974701,0.2833919048867863,-0.0649819370337763,0.1704059090229614,-0.1588282927124992,0.2404807510083825,0.1967825423813454,-0.6874732015489115,-0.0990574273937238,-0.1956833846463108,-0.0604203676167501,0.1352630170295606,1.6641914264626845,0.6644593453721841,-0.1974455242618919,0.0724360787061352,-0.4048771189548064,-0.1012304621652641,0.1402258807422925,0.2013865784784552,0.4793660037156945,-0.1219065851583825,0.1039203676759982,0.0015654670771705,0.2968392040796462,0.2952737370024758,1.5833200634122602,0.4817588129696851,-0.2044029903005895,-0.0098486850347648,-0.0706390948237895,-0.1345981027911039,1,normal_operation,0.3361115647485109,weak_normal,2025-04-03 00:47:01.078492
-0.7808090164184568,3.864317027664687,3.4332851806640625,-9.327809667968747,0.5195417602539062,-1.9512743530273435,1.504157192993164,3.455431546020508,22.70421434326172,124.34087048335682,-0.2421299104208915,-0.1950659462090864,0.1457312134741483,-0.1352436268543967,-0.1834557022094726,1.59125410218266,2.252943762207031,-2.5043349365234375,-0.8032546569824217,-1.1851298217773436,1.2707225311279295,2.455852352905273,11.801019982910155,20.52596489909051,-0.0150594119006393,0.0290666945824285,-0.0755648537940268,-0.4025556328202911,9.433154541015623,3.5417421193441356,17.068263635253906,5.954379528808594,8.21690009765625,6.983287692260742,10.541071359252928,3.5577836669921865,75.465236328125,812.2267346769598,0.0046710890689147,-0.4867851734292115,-0.174823598199173,0.3789248572426071,-0.213902756799763,0.3868883710521603,0.2931087293425591,-0.9696569691614298,-0.0775405820351679,-0.4618794033855986,0.0465976264034363,0.5084770297890349,2.531660034076049,1.5634960081754614,-0.514072376250592,0.2013358524589609,-0.0269751152245603,-0.0862169985124912,-0.128967840910726,0.2645112014573008,0.298304747726359,-0.6874732015489115,-0.0901975498931419,-0.1896546710086968,-0.0217500000296239,0.1679046709790728,1.6837764188323918,0.6927910374844727,0.1221628101309578,-0.23671925170575,-0.0421636980881963,0.2337186856330105,0.0504280245709812,0.2117343198275477,0.4793660037156945,-0.1789295561395713,0.0016653905076281,-0.1152117153177172,0.1170103370659556,0.2322220523836729,1.3429709053513617,0.378995262839726,-0.0068668037279753,0.2019051901329716,0.040133676844475,-0.181908105242892,1,normal_operation,0.5671227228703839,strong_normal,2025-04-03 00:47:01.078492
-0.6874351516723632,2.221356776012653,3.4332851806640625,-3.8187516479492185,-0.2932897033691406,-2.65576819152832,0.2741360900878906,2.929904281616211,14.444218615722656,43.25594411273707,-0.323312111851778,0.1201359354525186,-0.1668356276756767,-0.070655870538819,-0.1960252609252929,2.0290094314561467,2.70065947265625,-2.8227637573242186,-0.8259995727539062,-1.6825252166748046,1.935113491821289,3.6176387084960937,15.133748693847656,33.2424414068706,-0.0580672446289764,0.0704474563055511,-0.2885238144033055,-0.3963343035294187,10.260949765014647,2.3532447076675815,13.524845178222655,6.1842228881835934,10.656591589355468,9.158419900512694,11.625644711303709,2.467224810791014,82.08759812011718,886.598805874557,0.3272425439115462,-0.2443620693101828,-0.2106292706854317,-0.2769038342936042,-0.0090597243614972,0.2936161056195663,0.4942879026640429,-0.4254073512685415,-0.0496952527476247,-0.1924525270615121,0.1491190660530269,0.341571593114539,1.92412557689329,0.6903399686776532,0.1415328796402424,-0.2870868982234748,-0.0159189364661694,0.1632208499855587,-0.058754977109122,0.1690295592378146,0.298304747726359,-0.2981715164857488,-0.0678147014706193,-0.1689705209039548,0.0089264931208869,0.1778970140248418,1.1274027580439705,0.2561851138497866,0.1493954409599137,-0.3821504772433965,-0.0530677292198022,-0.2805361453259067,-0.1130467076578006,0.1095362368506441,0.0510275651537273,-0.3064318534035846,-0.1199081165492287,-0.182993108978184,-0.0326083461393596,0.1503847628388244,1.031742727285808,0.1982219623653491,-0.0094152765197423,-0.1951084445900867,0.1287912425459484,-0.1787442981568801,1,normal_operation,0.7932349834297168,strong_normal,2025-04-03 00:47:01.078492
-0.2816179702758788,1.5699852735516862,1.484405029296875,-3.038241906738281,0.1939303344726562,-0.9911994873046874,0.8032546569824218,1.7944541442871094,10.053252770996092,20.353299522811746,0.282819968467387,-0.2776702512372875,-0.15959853803472,-0.2222390604329297,-0.8346785537719725,1.727019466620202,2.70065947265625,-2.8227637573242186,-1.496376037597656,-1.9015946685791016,0.0412999786376954,1.942894647216797,13.730746520996092,29.43427620969599,-0.2618580606078478,-0.0820878729440616,0.0001422381248714,0.0704940600145865,10.21516065826416,1.5902113400561646,13.524845178222655,8.090007409667969,9.825803613281249,9.15482859802246,10.989385620117188,1.834557022094728,81.72128526611328,855.0262350415286,0.223533431310715,0.0114132204366779,-0.008181611127712,-0.4468903627211524,-0.0752756509447935,0.3044995850687561,0.4942879026640429,-0.398894334387101,-0.1605436449353562,-0.3121607967498254,0.0179196018620792,0.3300803986119047,2.288912713684166,0.7870913674576563,0.2668968493514688,-0.321697001395234,-0.3615827646848011,-0.1304128499380491,-0.016137634018917,0.1066303322089457,0.0873996938403267,-0.2094395102393195,0.0245811638925918,-0.0808380552402716,0.0760417305783024,0.1568797858185741,0.7126539060242492,0.093043607829749,0.321572130819831,-0.1352216576933861,-0.0958449389563642,-0.3081079442773978,-0.1970823126727184,0.158235808102823,0.0126569678579741,-0.506411945559576,-0.1937848394676146,-0.2808514552064157,-0.0819039051651537,0.198947550041262,1.6019724370976958,0.5110400714750447,-0.0927246992956749,-0.5505707807118024,0.1920786081938077,0.1280944574929185,1,normal_operation,0.6924769203432857,strong_normal,2025-04-03 00:47:01.078492
1.5460557220458986,1.109311910787856,3.323151904296875,-0.0119710083007812,1.37906015625,0.6087257720947266,2.4480711975097655,1.839345425415039,12.392387792968751,28.966889688693342,-0.2904273786077058,-0.1018691581982832,0.0384136719813324,-0.0059457004484931,-1.039981346130371,2.6304407691164458,1.8004396484374998,-7.352593298339843,-0.3974374755859374,-1.604115112304687,0.5710170959472656,2.1751322082519526,14.544775085449215,64.00623872103245,-0.248259892080103,0.0528891264717754,-0.1408288724408628,-0.0208715219604499,9.06594386138916,1.075524937899274,10.773907470703124,7.228094812011718,9.15423004760742,8.416815936279296,9.522338552856445,1.1055226165771472,72.52755089111328,666.7847359192241,-0.4934637717360021,-0.1637673651666942,0.3012195231012006,-0.1607033862786427,-0.2598675348103007,0.1444732322192847,-0.0612863706807169,-0.5459816240208216,-0.2219632468566834,-0.3305467079540405,-0.1724678409699739,0.1580788669840666,2.078940278482406,0.707229203810162,-0.1891334323089366,-0.0612997808447979,-0.0307580276116843,-0.1568155609548261,0.0087266462599716,0.1259358039039298,0.0996569679764701,-0.2283583464059756,0.077607197655473,-0.0115578101229395,0.0893315468291753,0.1008893569521149,0.8979785617131129,0.1274878484790059,0.4167311731168919,-0.1642602601280605,-0.155315874784411,-0.0917525851079428,-0.0374879403267102,0.3540734581757728,0.7269096487695467,-0.506411945559576,-0.101722052205929,-0.2752224352906325,0.0864670751560549,0.3616895104466874,2.2322894364248085,1.014186875635918,0.340016179077893,0.1241926248630418,-0.1324518613189861,-0.2193210976214182,1,normal_operation,1.0001106314188002,strong_normal,2025-04-03 00:47:01.078492
1.4113818786621093,1.219744710584572,3.323151904296875,-0.0119710083007812,1.2677297790527344,0.1975216369628905,2.4480711975097655,2.250549560546875,11.314997045898435,27.838207731318608,-0.1697955526402224,0.2036967739014765,-0.0851734366285907,0.0083828667034615,-0.6838438491821288,2.854286783186147,1.8004396484374998,-7.352593298339843,0.4129997863769531,-1.1109095703125,1.0863690032958984,2.1972785736083984,15.823278771972657,68.91676360588284,-0.531767313114071,-0.030429291392665,0.1882447482504173,-0.1957974272995541,9.443329898071289,1.3160117418079051,11.544840405273437,7.228094812011718,9.345766180419922,8.500612994384765,10.461464154052733,1.9608511596679676,75.54663918457031,727.2669317470668,-0.2248629638815859,-0.3201988176975904,0.4036826349411175,-0.254556510410256,-0.2276255745826192,0.1517490817347046,-0.0612863706807169,-0.5459816240208216,-0.2201646251084449,-0.2655298625362365,-0.0910968607672612,0.1744330017689753,1.8210045966609536,0.5987294880911489,0.2557761126725822,-0.0004116727160956,-0.3808894491342106,-0.3636956213825073,-0.0079439127213864,0.1311745623582194,0.1648070446348844,-0.2283583464059756,0.0139892802640767,-0.0742098010199115,0.0962595713409085,0.1704693723608201,0.8957136306227385,0.138158972473563,-0.1101036786714335,-0.3967210548560594,-0.121413121954079,0.0563247164173782,0.0258635145834655,0.3156247488119074,0.7269096487695467,-0.2880459421993695,0.0068614088914281,-0.2567366006559597,0.1214402758162466,0.3781768764722064,1.9253246580587828,0.8023032275935105,0.0225213407111128,-0.3759209764272783,-0.4279656824881562,0.1475229743014976,1,normal_operation,0.9338425603894946,strong_normal,2025-04-03 00:47:01.078492
1.378162330627441,1.0713175884809278,2.849099975585937,0.0359130249023437,1.2677297790527344,0.2873041992187499,2.4594436553955075,2.1721394561767573,11.025298645019529,24.376422279592415,-0.0405081044985436,-0.0124066248472508,0.2110351710116422,-0.4135638512683834,-0.5240308883666993,1.6394322910838055,1.6519991455078125,-2.7198130859375,-0.1975216369628906,-2.1906945190429683,0.9325415466308592,3.1232360656738276,12.045228552246092,23.698772872085502,0.0153037507635731,-0.562101191182536,0.2088344399667255,0.2961765805469722,9.03332286376953,1.149888722680592,11.544840405273437,7.524975817871093,8.8489693359375,8.34498988647461,9.47445451965332,1.12946463317871,72.26658291015625,663.3853282851949,0.1946215256026476,0.0552207812476291,-0.4017951007827215,-0.2391847426729583,-0.194517611290971,0.0973402616021197,-0.0724777948919782,-0.3582588060009735,-0.2101722820626759,-0.246644334179733,-0.0910968607672612,0.1555474734124717,1.5561408903277685,0.3784978210489153,0.3816381069066099,-0.3107906529310052,-0.6141737059122171,-0.2516408514161857,-0.0059620980173088,0.1311203691808045,0.1648070446348844,-0.2627320064834212,-0.0125237366173638,-0.0537254977760849,0.0822702910768319,0.1359957888529168,0.8164410424596373,0.1378247826150277,-0.1629014344629762,0.1584734296318536,-0.2587670812689848,-0.3924974538651594,-0.0147886677077382,0.1925566881022103,0.2944410417486617,-0.2880459421993695,0.0128568147188895,-0.1833261870797097,0.1147454059755813,0.2980715930552911,1.3560275669311668,0.2983742626036946,0.5360331059423187,-0.0475698348293394,-0.5118415033802262,-0.4666493045540359,1,normal_operation,0.4007751904548549,weak_normal,2025-04-03 00:47:01.078492
0.4297591979980467,2.5366753017775605,2.849099975585937,-4.84586416015625,1.3144167114257812,-0.8732850555419921,2.4594436553955075,3.3327287109374995,17.62611262207031,52.95531643929762,-0.3451650941032602,-0.0285733883832599,0.3491721298277347,-0.3481296157187599,-0.0047884033203124,2.860746896812844,6.603208178710937,-2.6144682128906247,-0.979228479003906,-2.1422119354248044,1.118690725708008,3.260902661132812,18.04749211425781,65.47116589144538,0.122996736362608,-0.4163114628653119,-0.3547192813063515,-0.1090621008663225,9.547776945495604,1.8663222102070631,12.30859073486328,7.431601953125,8.987833032226561,7.959523419189453,11.23119998779297,3.2716765686035165,76.38221556396483,757.1456255459965,-0.2106681569681357,0.0667815294467928,0.0504234381373436,-0.2481265547437587,-0.2046931472925792,0.0922912464458144,-0.0724777948919782,-0.3448024506993378,-0.2101722820626759,-0.2728242729596479,-0.1435233539473962,0.1293009190122516,1.6375451783406336,0.4033356697525088,-0.0522491611131895,-0.2731569098904129,0.160664147203189,-0.3807898787127159,-0.0267628254575847,0.2178898515211682,0.2503415011066676,-0.3686508427685732,-0.0501615620897606,-0.171401991045092,0.1818606434329969,0.3532626344780889,1.538154672845384,0.3855378897791189,-0.0629178264382331,-0.4141548794185265,-0.0037348688049806,0.1238708823853281,-0.1943177644300557,0.321966993434933,0.2944410417486617,-0.5646339977062572,-0.2013124045620939,-0.5476803223386023,0.0887653140565818,0.6364456363951841,2.5924134797943257,1.1313771074769985,0.5208451065474359,0.2321589599979486,-0.0031376288924808,-0.3552347257650372,1,normal_operation,0.563187899599273,strong_normal,2025-04-03 00:47:01.078492
0.6919242797851562,3.306336147840907,5.635950708007812,-4.84586416015625,0.8535328918457032,-1.7507599639892577,3.360262030029297,5.111021994018555,23.975535424804686,91.28494345180523,0.1365643103441043,0.0719439398960513,-0.1783754593371282,0.0550666432104099,-0.058059390258789,2.878713582462822,6.603208178710937,-3.4955344238281247,-0.7589619262695313,-1.5227122558593749,0.5099649536132811,2.0326772094726557,16.850391284179686,66.32290226122525,0.1087360639192635,-0.2274905640922992,0.0039958888602357,0.0942096890954606,9.030629386901854,2.482858241714756,12.30859073486328,4.405331054687499,8.494627490234375,7.912836486816405,11.23119998779297,3.318363500976564,72.24503509521483,701.7348173762101,0.0010040727290651,0.1787248731282187,0.0980565593645418,-0.3354354104000694,-0.1143457122537506,0.199003289458497,0.3537289438202248,-0.3448024506993378,-0.128967840910726,-0.2467442576101907,-0.0827699082291203,0.1639743493810703,1.6222235856704543,0.421418009008959,-0.1284199427773804,-0.5195064754263298,0.1590073443156113,0.0067073803945533,0.1169437214456505,0.2907926781721429,0.5458483927802112,-0.3686508427685732,0.1301669220762182,-0.0822036754565267,0.3005696788167334,0.3827733542732602,2.0800061284072875,0.7858897253126832,-0.1513854205945255,0.1435650601278338,0.0520299251953098,-0.1939763587271716,-0.280984686447026,0.2510381080651017,0.1726676878308894,-0.5646339977062572,-0.2767879023678029,-0.5476803223386023,-0.0989908117734188,0.4486895105651834,2.593212867237987,1.135780205749114,-0.1128687513770775,0.0418922421651191,0.2599666269260866,-0.4432287706119783,1,normal_operation,0.6586349725575493,strong_normal,2025-04-03 00:47:01.078492
1.7636287979125975,3.4484909475404515,6.057330200195312,-4.3454760131835934,2.7892449340820313,-0.6482300994873046,4.0072950286865225,4.655525128173827,27.36333077392578,120.01981081676058,0.0801435762599467,0.138004769929824,-0.3779381992118568,-0.4469676920417597,-2.2556372390747073,2.3583902461128017,1.0702081420898435,-5.925649108886718,-2.2278046447753903,-4.064755868530273,-0.3621230010986328,3.7026328674316407,20.635624108886716,85.19923125808455,0.0466902979208403,-0.3074306570085924,0.1636454649391428,0.0713387643051902,5.898714340209961,2.1599981138463646,8.70771143798828,2.882618798828125,5.5832782714843745,4.109647149658203,8.125321884155273,4.01567473449707,47.189714721679685,315.6833817537479,0.4840207410418645,0.1408797605926884,-0.2577052874157047,-0.4672955035031948,0.0002831163862968,0.4043200127683518,0.7466278723798644,-0.7415650852366746,-0.029377488554561,-0.1284349159482849,0.1137128638608519,0.2421477798091368,2.3199555927463553,1.3077980230391066,-0.4195275101243216,-0.1122153278264976,-0.1112548642726177,0.092268136723826,0.2011625194164074,0.2920474944389063,0.6802787145559578,-0.1616094948602383,0.0722113324107577,-0.0068614088914281,0.4749027571552509,0.481764166046679,2.0577565112253753,1.0060647858079963,-0.2978457817752714,-0.0594685350202815,0.1003840099350608,-0.3950440931654702,-0.1581787904145242,0.1724839955948523,0.1726676878308894,-0.4250076575467107,-0.1642075040521382,-0.2573694490488584,-0.0813376723925601,0.1760317766562983,1.6107656989779726,0.4381700677869361,-0.3582803296840286,0.1116219545524362,0.1235697255818919,-0.2777746163986502,-1,potential_anomaly,-1.1016457459315392,strong_anomaly,2025-04-03 00:47:01.078492
1.7842787872314452,3.100384784051387,6.057330200195312,-4.3454760131835934,2.2014684265136717,-0.182557876586914,4.128202212524414,4.310760089111328,23.803152905273436,102.36829279793186,-0.3060836945290629,0.0280726447033772,-0.1590064849189315,-0.2374758759219292,-1.1884218490600589,2.850327478265983,1.618480322265625,-5.925649108886718,0.4333505004882811,-4.064755868530273,1.1186907257080076,5.183446594238281,19.14643067626953,76.29370579745157,0.0992263766186174,-0.1426787641790305,0.0905149090695579,-0.2693180191217117,5.6586956237792965,2.0539034004700847,9.65342109375,2.882618798828125,5.457582684326171,4.109647149658203,6.815693576049805,2.7060464263916018,45.26956499023437,289.91484272833236,0.2422706586260851,-0.1396196123698676,0.1372146311453412,0.0490412856596418,-0.0070779096574197,0.3873286028732937,0.7466278723798644,-0.7415650852366746,-0.0074609494741742,-0.0918629404007702,0.0732438745254872,0.1651068149262574,2.0550918864131704,1.2005883472711698,-0.5004874386425416,0.0324594786218255,-0.1487125356623569,0.2557759177359203,0.0180195252925368,0.2790038792462207,0.6802787145559578,-0.2859142423496054,-0.0437664625404685,-0.1515172283840115,0.0624854518462091,0.2140026802302207,1.6081010741657678,0.6253429434096647,-0.2086353018336063,0.1102785278890241,0.1916384144835197,-0.3611906472026674,-0.1824268762055905,0.1401965216998271,-0.0009326186842717,-0.4250076575467107,-0.2041768762352145,-0.2576692193402315,-0.0364387443069044,0.221230475033327,1.459415009644724,0.4234770388708795,-0.0785262929356002,-0.3850059737493691,-0.2510705237138404,0.1499426331537643,-1,potential_anomaly,-0.9713982022489269,strong_anomaly,2025-04-03 00:47:01.078492
3.1325135971069336,2.703514592398348,8.470685473632813,-0.2633621826171874,3.058592620849609,0.7745242370605468,4.6447512207031245,3.870226983642578,25.586833142089844,136.973060698965,-0.0948782015975105,-0.2405390852580117,-0.3877825587369828,0.2026078120090097,-0.3049614364624023,1.601371466484259,1.618480322265625,-2.990357873535156,0.2406172668457031,-1.1085153686523437,0.6733692169189452,1.781884585571289,10.120290417480469,21.259136411193275,0.4484503634417966,-0.0732245973800728,-0.2858649026574209,-0.2485766941177567,7.28435855102539,1.989864988512022,10.503362683105468,4.520252734375,7.09282241821289,5.991489654541015,8.590395556640624,2.5989059020996095,58.27486840820312,456.17153737922143,0.0716065527314026,-0.4994949387104233,-0.232397546390178,0.1999648212416001,-0.0738101072980807,0.2560337460438202,0.3825068917920396,-0.4910903528893968,-0.058222052146681,-0.241215161124865,0.016487366025519,0.257702527150384,1.7392006149262575,0.5680096884206848,-0.6425157464060123,0.3238469937350144,-0.3559091898979027,0.2684649258761498,-0.1031875958526418,0.1618770675979897,0.0984578868109778,-0.3966294032967267,-0.08913169996826,-0.1825934152563533,0.0380375191942275,0.2206309344505808,1.1924196034617744,0.2948149196157784,-0.316082198232306,-0.1943333941294646,0.1742409713087984,-0.3309709209902623,-0.1525997322139698,0.2034438637916891,0.2271592652404833,-0.4783001537908124,-0.1676049006876996,-0.2915432622653885,-0.0268127871728136,0.2647304750925749,1.6751163881927251,0.5174086718901332,-0.1915922808586672,-0.4165599948557364,0.0702328241268799,0.2638772066287368,-1,potential_anomaly,-0.254251840025824,borderline,2025-04-03 00:47:01.078492
3.078045509338379,2.4228415675987693,8.470685473632813,0.5195417602539062,2.4313117858886715,1.419761584472656,3.85646032409668,2.436698739624024,24.62436407470703,122.756203353941,0.110121082489696,-0.3576280159698337,-0.1939858329801537,0.1061798234457785,-0.9023147506713868,1.5563413178239969,2.0733786376953125,-2.990357873535156,-0.7793126403808592,-2.1679496032714844,-0.0760159027099609,2.0919337005615235,11.547234606933593,25.89096165476241,0.1122711821043402,-0.1858538551731076,0.236863358042727,-0.2917078020491993,8.513781103515624,1.8509470682341425,11.092336291503903,4.781220715332031,8.400056524658202,7.964311822509765,9.758167416381834,1.7938555938720686,68.110248828125,607.2837898238743,-0.1111448993352596,-0.0119265924571299,-0.1951141670166326,-0.0545238063368675,-0.1383772972788252,0.234880092411176,0.3825068917920396,-0.4910903528893968,-0.1320987750650669,-0.2719915777058338,-0.0989575039632662,0.1730340737425675,1.872032161814681,0.5945354737061999,-0.6302860688716881,0.1773847858785434,0.025860884914526,-0.1825774313696225,-0.0273457121352546,0.1529313549281039,0.1389601839564951,-0.3966294032967267,0.003197549774646,-0.0458648545800799,0.0497951761780824,0.0956600307581624,0.8001868311051864,0.1930862983386392,0.0358142643366773,-0.2143565432412187,-0.2966418413117376,0.0828386928027935,-0.0045132082756723,0.2606739398461166,0.3242848396453586,-0.4783001537908124,0.0646171516959732,-0.1875229711589326,0.2074743494403182,0.3949973205992508,1.799287904441482,0.5437701757106913,0.1700173377737179,-0.054358105839063,-0.2572957390376941,-0.2652316927348414,1,normal_operation,1.0877591203312371,strong_normal,2025-04-03 00:47:01.078492
1.7375918548583984,0.9852559826071616,3.560177868652344,0.3327940307617187,1.5478513732910155,1.0666168395996094,2.2080524810791013,1.141435641479492,13.900734838867187,31.919638442667623,0.5040358683573305,0.0569865553171803,-0.1393702987990243,-0.2793014847131272,-0.6174047531127929,1.3261113407996794,2.0733786376953125,-2.2266075439453124,-0.690727178955078,-1.7190367919921872,-0.0131681091308593,1.705868682861328,9.770736975097655,17.118079338910338,-0.1079268485847748,-0.4433269649313638,-0.1072301263611351,-0.010047269494178,9.344868354797365,1.1663236339940086,11.092336291503903,7.3861121215820305,9.566032733154294,8.477269528198242,9.910199221801758,1.4329296936035156,74.7589468383789,709.4950031016492,-0.3260212529570483,-0.2314074238093936,0.1032459026658324,0.1525544113743979,-0.0759084993376922,0.1034646259998276,0.090730474855583,-0.265796325017457,-0.0873996938403267,-0.1246045177807401,-0.00922626341226,0.1153782543684801,0.8460183778751135,0.1317362328398771,0.4663591914858912,0.2414602826947334,-0.0881568169280646,-0.3125639754645124,3.330781015256114e-05,0.0662886595115706,0.1389601839564951,-0.1079173048943058,0.0022649310903743,-0.0243813170316765,0.0168204441270445,0.041201761158721,0.3639877493472141,0.0351534999140093,-0.294850026421223,-0.0890342834622329,0.2701409439079827,-0.4467538503914959,0.0578723201400791,0.1660308233016483,0.3242848396453586,-0.2709923434012569,0.07341041357625,-0.004729709041664,0.135063170168645,0.1397928792103091,1.1395268009395034,0.2473235177969517,0.3448675526539529,-0.2796756712111712,-0.4934130573285353,-0.1664407499096167,1,normal_operation,0.23620525865685194,weak_normal,2025-04-03 00:47:01.078492
0.9133879333496092,0.5232042812866963,1.85790048828125,0.3327940307617187,0.8846575134277344,0.393247622680664,1.2036848846435546,0.8104372619628906,7.307103466796875,8.86416189396319,-0.3695608074504896,-0.0769051570246203,0.0905404379623182,-0.3971029363263725,-0.8658031753540039,1.0041442298941372,0.3423708374023437,-2.384624853515625,-0.4836287353515625,-1.7794903839111325,-0.1705868682861328,1.6089035156249996,8.113949426269532,14.063366183062126,-0.3050185996693648,0.2124356675197399,-0.1363705457593704,-0.4098081699796059,9.292794468688964,1.265387638032835,10.785878479003904,7.264007836914062,9.629479077148437,8.573037594604491,10.143633883666991,1.5705962890625005,74.34235574951171,703.6578792942602,0.0987271328609133,-0.1646074483196851,-0.2750459936831054,-0.4418434559057762,-0.0555574273344759,0.1947684558383612,0.2306232774963499,-0.4866937219492585,-0.0438330781607735,-0.1081171517552212,0.0441661562622992,0.1522833080175204,1.1444563568420827,0.328171032973482,-0.3689954441793528,0.1703210131012745,-0.1301126935375663,-0.1102674709492588,-0.0448989280856556,0.1242765593885819,0.1008560491419624,-0.257935681821452,0.0022649310903743,-0.1325317765970503,0.0348399694195814,0.1673717460166317,0.7913935692249094,0.1396846156536369,0.1689150342046279,-0.5946982180378737,-0.3388940336061293,0.1084138298810733,-0.027662136331704,0.1818164709055992,0.2434134765949343,-0.3418713634059122,0.0331079632916481,-0.1182094182314479,0.0742764166402166,0.1924858348716646,1.152317000038088,0.2705793830320032,-0.0410789211010906,-0.3094952763848929,-0.2703531553162952,-0.1415198905256605,1,normal_operation,0.5564833553493913,strong_normal,2025-04-03 00:47:01.078492
1.1537059249877928,1.0498973106757918,3.4739866088867184,0.1101332763671874,0.7110778930664062,0.393247622680664,1.676539712524414,1.28329208984375,9.229647399902342,19.46657379452959,0.0069748827476138,-0.3904230633316863,0.1424328242002782,-0.2442207478850043,-0.9074024291992188,0.962790622846113,0.2513911743164062,-2.384624853515625,-0.5901707092285156,-1.792658493041992,-0.1861491790771484,1.6065093139648436,8.14028564453125,14.002759615656394,-0.5642971764618581,0.5229806693380824,-0.4322653853764717,0.3478135512516078,9.03422068939209,1.1969200167881222,10.785878479003904,7.264007836914062,8.987833032226561,8.161234909057617,10.05504842224121,1.8938135131835931,72.27376551513672,664.3980879298252,0.2248491606870998,-0.4424026488751256,-0.4990453913360207,-0.0250518484739796,0.0318089586956981,0.2767667044015619,0.5125405826276478,-0.4866937219492585,0.0123238897564484,-0.1081171517552212,0.2027446403986542,0.3108617921538754,1.7543889763558265,0.6208929481488494,-0.0715548946598607,-0.1580271576768271,-0.2951193211325231,0.1728595712136179,-0.02163342269409,0.1506302610391155,0.1276355285046234,-0.257935681821452,0.0617526800228527,-0.1782967077466725,0.1026879787003533,0.2809846864470259,1.0934287916883556,0.185259844145386,0.1477076804095692,-0.4024579828976968,-0.1472811355699451,0.3183547410896843,0.0595044028375547,0.2793716710953638,0.6002067389491951,-0.3418713634059122,0.0343070444571404,-0.1131466310882582,0.2240283310861423,0.3371749621744006,1.796889742110498,0.6527144365413613,0.1039377525534887,-0.5014176402679739,-0.4391748742802588,0.0651259067311646,1,normal_operation,0.22948968678278003,weak_normal,2025-04-03 00:47:01.078492
1.2802993377685543,1.354216709490958,3.4859576171874997,-0.0263362182617187,0.6548141540527344,0.2322375610351561,2.080561242675781,1.848323681640625,10.295067138671874,27.784554324440933,-0.1089193796141694,-0.1405010257128563,-0.2534284117674983,-0.2766227722905738,0.0350151992797851,1.762873109580329,3.842693664550781,-2.1499930908203124,-0.3543418457031249,-0.8744821563720703,0.489015689086914,1.3634978454589843,10.560823522949216,24.87158131729617,0.1567268049073577,-0.3260595624579673,-0.2234004124769671,-0.1953297618184724,8.80497588043213,0.8180718863644396,10.376469995117189,7.563283044433593,8.756792572021485,8.294113101196288,9.13627353515625,0.8421604339599611,70.43980704345704,625.5747349300113,-0.1337765734275557,-0.3131385856600283,0.1433375670947803,-0.3969086113784395,0.0699630552254597,0.2095911778812115,0.5125405826276478,-0.2408820830233395,0.0338407351150045,-0.0507277948623542,0.155980474944455,0.2067082698068092,1.2748897413995215,0.390586327536915,0.0762393159098689,0.1701868834494273,-0.4338185971796974,-0.1518008700058115,-0.00331412711018,0.1485290743608473,0.1276355285046234,-0.3053660034787026,0.0672817765081783,-0.0718116386889269,0.1103487750354429,0.1821604137243699,1.0009663107048392,0.1765749549519403,-0.141590928740593,-0.2396904111694616,-0.2359791169079685,-0.099299095631884,-0.0316424196449353,0.3206548955388068,0.6002067389491951,-0.4898912717239045,-0.0813376723925601,-0.2579023740112995,0.1520168455362999,0.4099192195475994,2.1490199110434,0.8305664380319144,0.375801045711521,-0.1509767965897089,-0.4101282344268656,-0.3424519213961925,1,normal_operation,0.644606454135559,strong_normal,2025-04-03 00:47:01.078492
1.6265607528686523,2.2571782758009435,5.346252307128906,-1.5490484741210937,0.6248866333007812,0.1981201873779296,3.6727053466796873,3.474585159301758,16.163255407714843,61.92442921216286,0.2620191432514037,-0.4480620302557757,-0.2388659340413998,0.1855653033633437,1.143231292724609,1.497014674319046,3.842693664550781,-0.5746083984375,0.9050082275390624,-0.1598129608154296,1.8231845642089843,1.9829975250244136,11.037269653320312,28.384245790330723,-0.0225389171740734,-0.1895380200200277,-0.2243392681064615,-0.3780222197496666,9.203311181640624,0.6008408749038295,10.096348400878906,8.09479581298828,9.38407340698242,8.85555339050293,9.56363853149414,0.7080851409912086,73.626489453125,680.4955717045323,0.0327726989444923,0.0962519401231356,0.0661626646871784,-0.1351873831460356,-0.2013623662773228,0.1963058226597281,0.1434900461372437,-0.4473905059692335,-0.2387503831735754,-0.3488660035379504,-0.05509111799234,0.2937748855456104,1.8978790224930704,0.632662228503323,0.374147532254184,0.0182055388684016,-0.4806211432570666,-0.2796580055763762,-0.002131699849764,0.1353207582007558,0.1268361410609619,-0.3053660034787026,0.0361056662053788,-0.0523265697496772,0.1063518378171353,0.1586784075668126,0.85454517727417,0.1465300139542153,-0.1530799711422722,-0.4525011929137168,0.3220064893536843,0.0204987288107867,-0.107101263545568,0.236638781909778,0.3322787140819739,-0.4898912717239045,-0.1079173048943058,-0.2374180707674729,-0.036705206788125,0.2007128639793479,1.7817013806809288,0.5397487500544058,0.0867058578532323,-0.3269296214300158,-0.0774475613385432,0.0835728440313826,1,normal_operation,0.7263329775660545,strong_normal,2025-04-03 00:47:01.078492
1.9473837753295895,2.7800080939849976,6.5409589355468745,-1.5490484741210937,0.4393360046386718,0.1580173095703124,4.511274478149414,4.353257168579101,18.921375720214844,92.1659885683122,0.0111586124437374,-0.4338598630004919,-0.4511326971509739,0.3434996680362925,0.6760626937866211,1.0176877524185437,3.0119056884765625,-0.2370259643554687,0.4094084838867187,-0.0586579406738281,0.82360537109375,0.8822633117675781,6.3518170043945315,11.941993018821838,0.0352133402170891,-0.154810499976002,-0.227134829080063,-0.084931406746513,9.802160871887208,1.2617893854323632,12.93347736816406,8.55448253173828,9.5384994140625,9.160215551757812,9.726444244384766,0.5662286926269537,78.41728697509765,781.3957616923706,-0.503896822089785,0.0444674277746532,-0.0553515085317354,0.1489596295034294,-0.342754020374955,0.1452523154834994,-0.0564900460187477,-0.5768912718424006,-0.3343437983114328,-0.4389969378107874,-0.2989709039294103,0.1400260338813772,2.7420321629996405,1.1086284290921051,-0.3571450794822853,0.0518289973214832,-0.3235180444430889,-0.0138888284548611,-0.0087766079752005,0.0778562901994646,0.1268361410609619,-0.1016554365856239,-0.0101255742863792,-0.0867002298271228,0.0497285605577773,0.1364287903849001,0.5660995413529696,0.0491090461693889,-0.3094703323320014,-0.4594075864611403,0.5061237135397796,-0.1431083315873739,-0.0464477412577498,0.1745783544136638,0.3322787140819739,-0.2142358349012887,-0.1079173048943058,-0.1801286373050635,0.0364054364967519,0.2165340738018154,1.249042880721133,0.2610799559818375,-0.3869461768487527,0.0066868496871022,-0.3005925098470859,0.2365686348747883,-1,potential_anomaly,-0.17506344426162102,borderline,2025-04-03 00:47:01.078492
1.7348983779907226,2.201959820130914,6.5409589355468745,-0.1221042846679687,0.7062894897460936,0.3214215728759765,2.0165163482666015,1.695094775390625,14.12339559326172,62.86799545140644,-0.1459191178813591,-0.2554283009138559,-0.3371979455210913,0.3953317633663092,0.0164601364135742,0.8546540702254503,1.6424223388671877,-1.2976572998046874,-0.0359130249023437,-0.4076128326416015,0.4537012145996092,0.8613140472412109,5.193023400878905,5.84563612674946,-0.1909785792946343,0.1458415565264594,-0.3532312688688945,-0.2673888116996986,9.864709390258788,1.5029894115509623,12.93347736816406,7.723694555664062,9.730035546875,8.820238916015624,10.608707556152345,1.7884686401367187,78.9176751220703,796.5717482039538,-0.4840683539911319,0.1918738036977067,-0.1829869498476454,0.2071469432310604,-0.2097725883408451,0.1994613397528422,0.1337641655726952,-0.5768912718424006,-0.1996470140544658,-0.3272492347489367,-0.0970589587845701,0.2301902759643666,1.9457090378721515,0.6703149190017315,-0.0612140433515404,-0.0127342501263202,-0.3249411481588478,0.1198541935527047,-0.0237318147337015,0.0816872787732779,0.1500183769271462,-0.1016554365856239,-0.0569563553608836,-0.0867668454474279,0.014722052087433,0.101488897534861,0.5943445643623435,0.0578880843515036,-0.1815489430524216,-0.3829361159595026,0.0049802098603549,0.3787752633105241,-0.0629017994731162,0.1889463550893541,0.2679280248672211,-0.3898346100256037,-0.0537588055862376,-0.1801286373050635,0.0364054364967519,0.2165340738018154,1.260234304932394,0.3172588918280674,-0.6221525929742431,0.285423572258642,-0.3443432657972864,0.3407186843376794,1,normal_operation,0.5192042020024541,strong_normal,2025-04-03 00:47:01.078492
1.916558428955078,3.055801704329611,8.415618835449218,-2.96881005859375,1.39821376953125,0.7302315063476562,2.185307565307617,1.455076058959961,21.270087548828123,104.08896214226009,-0.4569905858043985,-0.1691044298314471,0.2661005588143982,-0.0430512527629568,0.0688332977294922,1.3989319224684618,2.549824768066406,-1.2976572998046874,-0.4991910461425781,-1.1755530151367186,1.1935095275878906,2.3690625427246093,9.9215716796875,15.693988372620984,-0.683513240175795,0.6563980376761349,-0.4912293640845598,0.2654207237963988,10.435427210998537,1.5595425755191985,12.926294763183591,7.723694555664062,10.344148272705077,9.722254391479492,11.174936248779296,1.4526818572998028,83.48341768798828,890.6425129672456,0.2017281801175532,-0.4523891447085327,-0.2441475525552212,-0.0363535726620891,-0.1911202146554095,0.2087629278149281,0.1337641655726952,-0.6287182244397894,-0.1674716694470894,-0.2448790202416471,-0.0929620981358048,0.1519169221058423,1.796490048388667,0.6408711718383258,-0.0402424021036608,-0.0724541096988843,-0.0349743406331855,-0.0656154811513112,0.0318422665058507,0.160320105850046,0.2556707507310777,-0.2570030631371803,0.0328415008104275,-0.0780735069976089,0.16384111814046,0.2419146251380689,1.0986248100721556,0.2137317302079967,-0.2592281304164737,-0.063573636937004,-0.2153317620685446,0.049180092946453,-0.1475202911657039,0.2083711659406433,0.2679280248672211,-0.4022251154023573,-0.142624043073277,-0.3184892806788125,-0.0591213630208003,0.2593679176580122,1.7242787159779094,0.5214462328086173,-0.4699076975237424,-0.0272144942896035,0.3007682048458017,-0.3369002631015535,1,normal_operation,0.7255943229741684,strong_normal,2025-04-03 00:47:01.078492
1.6478092926025387,2.9816825422125084,8.415618835449218,-2.96881005859375,1.502361541748047,0.7793126403808592,1.715445489501953,0.9361328491210938,19.436129077148436,92.845649978577,-0.4454794921122176,-0.186870720979224,0.1176285400241133,0.0714805840549919,-0.0071826049804687,1.7745750995169536,2.549824768066406,-3.1364041748046874,-0.1628057128906249,-1.1755530151367186,1.332971774291992,2.5085247894287104,11.645396875,25.193346989119288,-0.2931296223148935,-0.0151861758768632,-0.1635582746148791,0.1084170044760117,10.383353324890136,1.539964223368538,12.926294763183591,7.8529814453124995,10.23281789550781,9.55166752319336,11.103110198974608,1.5514426757812494,83.06682659912109,881.4841286300968,0.0134264405279451,-0.073676353558438,-0.0570312386992043,-0.0225436935144332,-0.2141692192809835,0.1867055802314379,0.0071944869929537,-0.6287182244397894,-0.1811944872299455,-0.2615662331280814,-0.0990574273937239,0.1625088057343575,1.7277427282337758,0.6458194254158713,-0.047385670733648,-0.1363239555387742,0.0857108117150039,-0.0103462072839031,0.0202011868575297,0.1635608421012552,0.2556707507310777,-0.2570030631371803,0.0424341501343659,-0.1062852221968302,0.1308663860894221,0.2371516082862523,1.142191425751709,0.2172818961545966,-0.0606348806880061,-0.2834946908255238,-0.3476093148075052,0.0952245738136087,-0.1539153907149961,0.176986091419006,0.1990474734717197,-0.4022251154023573,-0.1376944871706976,-0.3006362944370385,-0.075009188463573,0.2256271059734654,1.629418072663408,0.4401121924378132,0.1160127154377893,0.0674320913794213,-0.0953998503128629,-0.2092418384048305,1,normal_operation,1.6184949736487777,strong_normal,2025-04-03 00:47:01.078492
1.058536408996582,0.7861165619488099,2.2649147705078123,-0.2035071411132812,1.303642803955078,0.7793126403808592,1.3916297149658203,0.6123170745849611,9.191340173339842,13.907828625132767,-0.1089920301286933,-0.2992508045598852,-0.2808522899792527,-0.1001905870297916,-0.5985504150390624,2.3501333370194346,2.2002713256835937,-5.415684155273437,-0.1628057128906249,-1.1288660827636718,1.1438298431396483,2.27269592590332,13.886369628906248,47.05111440890829,-0.2801872289416089,-0.0460854076367924,0.1109113529600257,-0.3808780508055696,9.687837742614745,0.959113074311319,10.692504614257812,7.8529814453124995,10.01614264526367,9.00100114135742,10.4578728515625,1.4568717102050783,77.50270194091796,758.1927841323654,-0.5136724118374143,0.2218678117413149,-0.0277565914734742,-0.2667464246438035,-0.1199747321695338,0.0884571913371932,0.0071944869929537,-0.2378177644893036,-0.1235719756660106,-0.2084735837448951,-0.0420677642226877,0.1664058195222074,0.974186831342178,0.1777488884673294,-0.1822204411056622,0.161927173159125,-0.2211953232977039,0.1427652671117156,-0.0994904289257073,0.1216235178010994,0.1060520675257623,-0.3401393572779789,-0.1100490047440699,-0.1348633233077297,-0.0640176111132271,0.0708457121945026,1.0530597257834486,0.1975250042410845,-0.2352918086621606,-0.0274570267304151,0.2489617757217309,-0.4008406893242962,-0.0119575038447703,0.2118264937343445,0.2945742729892719,-0.3184226650585074,-0.0217166922194714,-0.1507511487505025,0.1787630170888084,0.329514165839311,1.4588820846822828,0.3601075627678721,0.3275178258523832,-0.0860534248069326,-0.3966893205794261,-0.4053882140314293,1,normal_operation,0.6009030116505927,strong_normal,2025-04-03 00:47:01.078492
1.7259201217651363,1.8073516715321336,5.753266589355468,-0.2035071411132812,1.303642803955078,0.7906850982666014,1.8225860137939456,1.031900915527344,14.214375256347656,49.96256265043025,0.0222609476231577,-0.2050980802962292,0.0964239965206022,-0.2798445430643065,-0.7398083129882812,2.2620923589282276,1.695094775390625,-5.415684155273437,-0.1448492004394531,-1.7669208251953124,1.1438298431396483,2.910750668334961,14.346056347656248,45.31502544230431,-0.2408999458936895,-0.1682231566047225,-0.108227883905557,-0.27880250860604,9.584887071228026,0.6112884210838136,10.651803186035156,8.817844714355468,9.531316809082032,9.0512793762207,9.852738381958009,0.801459005737307,76.67909656982421,737.9498696155624,-0.2712454545868552,-0.6179001251898645,0.4001125162779183,0.156464439774759,-0.239200038610635,0.1726780183079806,-0.0107917304894305,-0.5778238905266723,-0.2407488517827292,-0.3052660800482448,-0.1094494641613237,0.195816615886921,1.91360030888508,0.6962748518248046,0.2405912939064874,0.3055943840868751,-0.3758938357468201,-0.2418724474700262,-0.0215001914534797,0.1738828981295933,0.1797289435832328,-0.3401393572779789,-0.0428338438561967,-0.1266362942000465,0.1598108731119998,0.2864471673120464,1.210405820944159,0.2455801639558626,0.4811617410665433,0.218802873741984,-0.1091057358386559,-0.4399778595050279,-0.0369883231744218,0.2305238996905862,0.2945742729892719,-0.3863705977697371,-0.0509609495334222,-0.2033108731712478,0.1778303984045367,0.3811412715757845,1.6516676898453206,0.4360752350384874,0.4045120461010529,-0.1045348938685468,-0.5189213490248225,-0.3940997658629335,1,normal_operation,0.5727307991044159,strong_normal,2025-04-03 00:47:01.078492
1.6457143661499023,3.6825438517253386,5.753266589355468,-6.945579016113281,2.5342624572753905,0.7906850982666014,4.073135574340821,3.2824504760742195,27.05687296142578,130.15603995865814,-0.1838773137641199,-0.21012606108047,0.1879138883785928,-0.0665953426371922,0.3393780853271485,2.0650384011363867,4.273649963378906,-2.8514941772460936,0.0167594116210937,-0.9475053070068358,1.7124527374267575,2.6599580444335933,13.091494677734374,35.03648866374596,-0.248790373902951,0.017719864521037,-0.138791533278921,-0.3359589698524442,10.567407577514649,2.6145544723390395,16.661249353027344,8.559270935058594,9.531316809082032,8.957306961059569,10.452485897827149,1.4951789367675783,84.53926062011718,948.0479839851364,-0.4668150833489554,0.3508454204705354,-0.1814175559124378,-0.0690001767756425,-0.2779037140079138,0.1653342719781449,-0.001598774887323,-0.5778238905266723,-0.2765880555068876,-0.3780103374214436,-0.1936849160371569,0.1843254213842866,2.223229712063311,0.8365271659994846,0.0403213347405399,-0.045516269132275,-0.2017107642818561,-0.3666171914271612,-0.1204243876065934,0.389530973146784,0.1797289435832328,-1.0777075052963458,0.0017986217482384,-0.1987810109904991,0.1598108731119998,0.358591884102499,2.0017993901690687,1.3298912973688288,0.1380275606106097,0.1273459420347624,-0.1144024029948502,-0.2615457418381696,0.0524598009902875,0.3102972165440966,0.6436401233881379,-0.3863705977697371,-0.0011990811654922,-0.1734337674643983,0.2263598777968218,0.3997936452612201,2.1282358375082,0.7922911465196364,0.3890558918771795,-0.0270394821644175,-0.380862379127957,-0.3440136555434818,1,normal_operation,0.38727123063031765,weak_normal,2025-04-03 00:47:01.078492
1.3835492843627928,3.798619830886089,5.652710119628906,-6.945579016113281,2.1787235107421874,0.8176198669433592,4.073135574340821,3.2555157073974614,28.905196643066404,130.74976993489486,-0.261587265329373,-0.2392724752401425,0.2813665643897504,-0.3770642375178525,0.8544307174682617,1.7249086623180026,4.273649963378906,-1.8171990600585937,1.0402806213378906,-0.3010708587646483,1.5400702178955077,1.841141076660156,12.332532751464845,29.642893954344075,-0.4776098247227766,0.2633801358179558,-0.1485834906790232,0.2320938457528283,10.530896002197265,2.7298130454205465,16.661249353027344,8.415618835449218,9.173383660888671,8.532934716796875,11.461641897583004,2.9287071807861302,84.24716801757812,946.81319897634,-0.3815641435058224,0.1949307520828799,0.1107508742287514,-0.208646922353256,-0.2464777951289701,0.2440768056175952,-0.001598774887323,-0.7119877498211983,-0.1655398164582407,-0.407354518165852,-0.0364054364967518,0.3709490816691002,1.9718223610317611,0.9625983242570236,-0.1334075504009994,-0.4609401333449042,0.1736616811618385,-0.1001179924742552,-0.147586906786009,0.3846347252282327,0.2923093418988976,-1.0777075052963458,-0.0665490046848219,-0.1987810109904991,0.0329747320510379,0.2317557430415371,2.050695255473032,1.3578061352484814,0.0735935376498918,0.0034367363982303,0.018246880514075,-0.1817199559700001,-0.0338573890200808,0.3830500489943162,0.6436401233881379,-0.5750260344738569,-0.0313093415434097,-0.3139261106879114,0.1723013019192112,0.4862274126071225,2.674617155250852,1.182989302606441,0.3438635505850091,-0.0998564839436565,-0.0431610255480812,0.0016577252319693,1,normal_operation,0.3201550931211514,weak_normal,2025-04-03 00:47:01.078492
0.8670002761840819,2.4695732974862405,5.652710119628906,-2.4660277099609376,0.9947907897949216,-0.9044096771240234,1.946485949707031,2.8508956268310546,16.910246325683595,54.80385400448271,-0.1363642436548859,0.048407113402566,-0.3954560835585657,0.1004719017817152,-1.0007762939453122,3.573039771536639,3.1866824096679687,-9.251195214843747,-0.3268085266113281,-1.8632874420166017,1.1653776580810546,3.028665100097656,21.471200488281248,110.14533119604413,-0.2202170283469032,-0.1536805378294337,-0.0116632082488371,-0.1220695212701114,9.573215338134766,1.8583636129355716,11.812990991210937,5.827486840820312,9.775525378417967,8.444349255371092,11.140220324707029,2.6958710693359365,76.58572270507813,760.7997378254533,0.2684361520474878,-0.1473954367495812,-0.5948315908718389,-0.1508078119261965,-0.1827599543071161,0.2886319975315052,0.2230290967815654,-0.7119877498211983,-0.1273690660234029,-0.3336110264880764,0.0137894334031613,0.3474004598912378,2.033641656674919,0.933677047178928,0.0183798269892031,-0.2507657152197238,0.0467459173940037,-0.0748194770721495,0.0493621746460991,0.1511803307332049,0.2923093418988976,-0.0903307811337523,-0.0311094946824943,-0.0748093416026576,0.1747660798705008,0.2495754214731584,1.01708729081868,0.2023369334911456,-0.1058847956554576,-0.3785231934793035,-0.3939619629269352,0.3371591749718952,-0.2018952912397638,0.2275234051434105,0.1232388975644851,-0.5750260344738569,-0.2139693724200681,-0.3139261106879114,-0.065316615709177,0.2486094949787343,2.075343034985929,0.7402288681027329,-0.4684442863208638,-0.3284128814290115,0.5521844558891653,-0.248383108418302,1,normal_operation,0.8459361994221961,strong_normal,2025-04-03 00:47:01.078492
-0.430956298828125,2.5565942950594156,2.2385785522460937,-6.167463476562499,0.3914519714355468,-1.0277110626220702,1.1581950531005858,2.185906115722656,14.915876342773435,53.77518176823989,-0.0858016032371692,-0.3103363675948066,0.0722740429666859,-0.2461516300513349,-1.8166005096435545,3.2296067115974214,3.1866824096679687,-9.251195214843747,-1.5107412475585935,-2.020706201171875,-0.852934341430664,1.1677718597412108,20.90616889648437,109.84317538585864,-0.4303314936284179,-0.0171681643507888,0.0449829430975979,-0.0561669242828305,9.418190780639648,2.1130788837678725,11.812990991210937,5.827486840820312,9.891644158935543,7.658452560424805,11.495759271240232,3.8373067108154286,75.34552624511718,745.3393595964106,-0.2410268208570006,0.0005846206086055,-0.3184887807002544,0.0781457924446596,-0.0400359878033813,0.310597342422275,0.464977029729787,-0.522133231951586,-0.0721447167904525,-0.2771209804693286,0.2154349160667809,0.4925558965361095,2.2476110290949873,0.7845887155133797,-0.2475121023379529,-0.4596800372672613,0.3769974929606385,0.0804022440948576,-0.1167272206796589,0.2345466312873879,0.2709923434012569,-0.6419081172602046,-0.0947274120738906,-0.1399261104509194,-0.0576225115639348,0.0823035988869845,1.475802452239785,0.5490989303668776,0.075384787497278,-0.3929095613823696,-0.0193500387257659,-0.1068774397203579,-0.1735170369897797,0.3036222388193867,0.1489525270022641,-0.8771944881779135,-0.1595444106307793,-0.2380509191603716,0.0577890506146977,0.2958399697750693,1.982614091521192,0.9783570082512748,-0.2072190046173015,-0.2856250787821733,0.1266016596169111,-0.3053443058481251,1,normal_operation,0.40778221248007096,weak_normal,2025-04-03 00:47:01.078492
-0.3884592193603515,2.381098174935552,2.2385785522460937,-6.167463476562499,0.2537853759765625,-0.7428010650634767,0.9636661682128904,1.706467233276367,12.536039892578124,46.56423267029976,-0.030661586608265,-0.284644335986904,-0.1171860461413063,0.092878587212928,-0.3360860580444335,1.4184871687737208,2.104503259277344,-2.0781670410156248,-0.6835445739746093,-1.4125789794921877,0.3728969085693359,1.7854758880615234,10.196904870605469,17.00047749110026,0.3104708655196664,-0.1405284678478235,0.0711933173740964,-0.1979562256225208,10.285789607238767,1.7605008758983152,12.006921325683592,7.067683300781249,11.104307299804688,9.318831411743163,11.58135198059082,2.2625205688476573,82.28631685791015,871.1746494273583,-0.0144483501002402,0.2304089222822258,-0.130872133220149,-0.2328944967218741,0.0110082312554222,0.3149560457758836,0.464977029729787,-0.522133231951586,-0.0589548239700374,-0.1327649312681182,0.2626320830529635,0.3953970143210817,2.091330783859159,0.7945479354092267,-0.1751738787634459,-0.4275052701699188,0.1073510382156523,-0.1588734059369365,-0.2090065087073361,0.1903412019437521,-0.0277120980469328,-0.6419081172602046,-0.1418246556296155,-0.267161945233712,-0.0845352221672062,0.1826267230665058,1.6720520696586894,0.6393079507153762,-0.1965997029958885,-0.2154667649943639,-0.1851460272255198,0.1238054282560007,-0.1726010722105842,0.2979991232888002,0.1489525270022641,-0.8771944881779135,-0.0659494641020757,-0.2624655440022007,-0.0101255742863793,0.2523399697158213,1.7615834633487804,0.948756860873095,-0.1886006654901382,-0.2947179749798815,0.2009338881866231,-0.1862748992874867,1,normal_operation,0.5281150695971948,strong_normal,2025-04-03 00:47:01.078492
0.7212532501220703,1.6112718139850606,4.240131140136718,-0.9457096557617188,0.3974374755859375,-0.5710170959472656,1.2102689392089845,1.7812860351562498,10.1514150390625,24.931224874834857,-0.1625955047248852,0.0586241040836769,-0.1602714247489626,-0.3158640891194819,0.0712274993896485,1.2268127077437496,2.104503259277344,-1.5921441040039062,-0.0395043273925781,-0.6212953308105468,0.6386532928466797,1.2599486236572264,7.541735229492186,12.081142212406826,-0.0513058664520522,-0.2441395226829274,-0.0020545888465737,-0.1072339999090697,10.43153663330078,1.5379163262830218,12.006921325683592,7.264007836914062,11.079168182373046,9.70429787902832,11.459247695922851,1.7549498168945323,83.45229306640624,889.4571452683522,0.4317467415065897,-0.1658720377883445,-0.5127301182218731,-0.2945685919527695,-0.0229490811951162,0.2079361718097545,0.4118177647262956,-0.2860474735902157,-0.0589548239700374,-0.1269693723015721,0.0392032925495672,0.1661726648511394,1.301136295799742,0.3501128949967665,-0.1508734188914188,-0.5267826038740764,-0.0579737151013921,0.2778091382250858,-0.0589048622548086,0.1475037181139325,0.1245712099705876,-0.3404058197591993,-0.0310428790621891,-0.1055524503734738,0.0542917305486785,0.1598441809221523,0.9388805525804608,0.2018170372375395,0.412853797494051,0.0815223610577571,-0.2717425489220141,-0.355984728962216,-0.1009726264774963,0.1102970908358333,0.0285114854905943,-0.280451761484585,-0.0644173048350578,-0.1465543646712795,-0.0253472435261008,0.1212071211451786,0.8648039828011596,0.1788873563568966,-0.4215068214245256,-0.39589920118796,0.4400444264119367,-0.0472738274398107,1,normal_operation,0.32704201366429997,weak_normal,2025-04-03 00:47:01.078492
1.2407950103759764,1.37048427391754,4.240131140136718,-0.5363011718749999,1.109712469482422,0.297479556274414,1.6968904266357423,1.3994108703613284,10.998962426757812,27.34239522263365,-0.1657957484446169,0.2879587490860925,-0.3028007434861983,-0.0233911653361243,-1.507449220275879,1.6458390458242638,0.3016694091796875,-4.209006518554688,-1.0773907470703123,-2.1487959899902345,-0.2579752288818359,1.8908207611083987,12.662932580566409,39.84951453176062,-0.180571862963459,0.027287863015437,0.2371380938892061,-0.3135238473563135,9.365817619323728,1.7142774120605704,11.793837377929687,6.478709692382812,9.58159504394531,8.45991156616211,10.38664535217285,1.9267337860107416,74.92654095458983,725.2582937914872,-0.1621904153153072,-0.1511954188057425,0.072900694871659,-0.1696084967600132,-0.1443060874859815,0.3334979113171846,0.1712021441841766,-0.9095696796462052,-0.0676814702300091,-0.2617660799889968,0.123238897564485,0.3850049775534818,2.024715163554032,1.056360829907492,-0.0789152961450977,0.0794517994437486,-0.2720601500364016,-0.2418616149543255,0.0157212863920099,0.0948536025680601,0.1245712099705876,-0.202378254486976,0.0525597244207452,0.0218166156499291,0.0542917305486785,0.0324751148987494,0.6501684541780399,0.0739549181276728,-0.2065675285761848,-0.1819598268782598,-0.069844511029729,-0.3249356958778777,0.029027756547959,0.1585454203617035,0.2765880555068876,-0.280451761484585,0.046697549833894,-0.0395696784612454,0.1118143186821557,0.1513839971434012,1.031875958526418,0.2078340877430148,0.3596917758389518,0.1884122124915338,-0.236122200684384,-0.3166756424720154,1,normal_operation,0.8475313931037398,strong_normal,2025-04-03 00:47:01.078492
1.1037269653320312,0.8880600346748456,2.578555187988281,-0.2657563842773437,1.447294903564453,0.297479556274414,1.5586252807617187,1.2611457244873048,9.361328491210935,16.054910713501943,-0.2587320335071684,-0.0464603056348009,-0.3036550796794651,-0.0218169098540875,-1.207874737548828,1.822449098843756,0.8355763793945312,-4.209006518554688,-0.4620809204101562,-2.048239520263672,-0.0221463653564452,2.0260931549072265,11.832144604492187,38.24225679588054,0.0447868602701519,-0.0934691399680194,0.2927460069604746,-0.2795738197784141,9.466673364257812,1.6670818595048054,11.793837377929687,6.478709692382812,9.63307037963867,8.629301333618164,10.700884320068358,2.071582986450194,75.73338691406249,739.1765320947065,0.0900680801079544,-0.3714153268159725,-0.347101812839775,-0.0816100174647671,-0.1890051687107218,0.3233029549808028,0.1712021441841766,-0.9095696796462052,-0.1103154672252904,-0.2168338440931886,-0.0332078867221058,0.1836259573710827,2.088399696565734,1.1219820359894996,-0.015705497777061,-0.1212251784347511,-0.3933483525854406,-0.1113718489542088,-0.0355061256226327,0.1021535061673551,0.0640842267335322,-0.202378254486976,0.0053292496244101,-0.1060187597156097,0.0518602604075414,0.1578790201231511,0.7205145492202543,0.0935681902321123,-0.4729127180316309,-0.1912784370825891,0.3651789287155582,-0.0923556410216066,0.0403690659049069,0.1811665040594924,0.2765880555068876,-0.3184226650585074,0.0787396632006601,-0.0493621746460991,0.1755321595040097,0.2248943341501089,1.2715589603842652,0.2756077094013826,0.4932995227900051,0.0048495054498205,-0.1485836145057235,-0.3734352426916023,1,normal_operation,0.9735926628471936,strong_normal,2025-04-03 00:47:01.078492
1.3449427825927731,0.8325599603597901,2.578555187988281,-0.2657563842773437,1.4724340209960936,0.8786720092773436,1.7202338928222656,0.841561883544922,11.291055029296874,20.016217408341497,-0.4847147931202194,0.1686159498979466,-0.2078749242158375,0.1953696328919546,0.143652099609375,0.5683834236956142,1.2401964599609374,-0.5123591552734374,-0.0730231506347655,-0.1867477294921875,0.3956418243408202,0.5823895538330077,3.5003228271484375,2.749565136433039,0.1504424778761062,-0.1460176991150443,-0.3922283585068867,-0.2638498902122563,9.451709603881834,1.1562375154765436,11.027692846679686,7.60398447265625,9.099163409423827,8.826822970581054,10.650606085205077,1.8237831146240229,75.61367683105468,725.37359702646,0.3881943474866808,-0.1783710729425802,-0.5568742816378802,-0.4051417643844602,-0.174599540819738,0.1518702467573127,-0.0209173047758099,-0.4464578872849617,-0.1103154672252904,-0.2386504597431177,-0.0725777183224359,0.1660727414206818,1.3967963265579044,0.4283965720367234,0.0721482842182325,-0.212688540707669,-0.0800273353362252,-0.1728622593427398,-0.0199347243763092,0.0780533815271199,0.0848683002687319,-0.1802618685456739,-0.0035972434964767,-0.0490957121648786,0.0150218223788061,0.0641175345436848,0.4573828490150022,0.0519177888302204,-0.3026994712058605,-0.0290610404299548,0.2198336213919548,-0.3505431686175214,-0.1317823508686176,0.1550732580926767,0.1937182238473095,-0.321353752351933,-0.1502182237880615,-0.2105053601642015,-0.0895313936900907,0.1209739664741107,1.44169525464356,0.3313144270074991,0.1135306187615192,-0.3044201781538382,0.186826093968845,-0.0346097883751206,1,normal_operation,0.24183691307101318,weak_normal,2025-04-03 00:47:01.078492
1.1324573852539062,0.8711941900110818,2.269703173828125,-0.8259995727539062,1.2820949890136717,0.8786720092773436,1.5598223815917969,0.6811503723144533,10.71165822753906,16.331512369001434,-0.0249988199197546,-0.047483596884588,-0.1446976634411139,-0.3389983478876564,0.7787140899658203,1.2482580556719338,3.172317199707031,-0.5123591552734374,0.2705447875976563,-0.1274912384033202,1.4867992309570313,1.6142904693603517,8.197746484375,17.316350459689378,0.0034703963667625,0.2298725230669972,-0.1776779881904148,-0.3167541506109543,9.873687646484374,0.9821590396856146,11.27429561767578,8.394071020507813,9.708487731933594,9.132083682250975,10.83974801635742,1.7076643341064432,78.98950117187499,787.6347529565944,-0.0318524515884625,-0.3163481322468747,-0.269580396205813,-0.0252809614713246,-0.3234354904864682,0.250145467872241,-0.0209173047758099,-0.8657366014854315,-0.3307465548149559,-0.403624043428765,-0.1487193723311961,0.2549046710975688,2.587483923891746,1.3374661728259576,0.2525371704651425,0.2172713308155275,-0.1796216795602592,-0.3120542068148431,-0.0279119449078482,0.0759534347738545,0.0848683002687319,-0.1398928026407669,-0.0035972434964767,-0.0920627872616856,0.0113579632620241,0.1034207505237097,0.4918897403330581,0.0523840073798794,-0.0713044366222095,0.1966478025350808,-0.0877885004438468,-0.2874446729918047,-0.0693135529274847,0.1502512584015623,0.1909203677944942,-0.321353752351933,-0.0883323125245985,-0.1676382084978522,0.0385038285363634,0.2061420370342156,1.1212741209758987,0.2190384741654742,0.4086867249852043,0.2460341631723589,-0.1854809896011346,-0.2522804384893307,1,normal_operation,0.4678782503206267,weak_normal,2025-04-03 00:47:01.078492
1.2387000839233395,1.1623349358349395,3.605667700195312,-0.8259995727539062,1.1061211669921875,0.8900444671630858,1.5149311004638668,0.624886633300781,11.56159981689453,23.083203207792817,0.0231607791325986,-0.1401416711399024,-0.0317416685278907,-0.49031440864552,-0.2472013214111329,2.333685894308804,3.172317199707031,-5.058948107910156,-0.3100491149902343,-0.9822212310791016,0.9876081848144532,1.9698294158935543,13.92467685546875,44.05758677282634,0.2987808401875854,0.2243359012343014,-0.0327880438704589,-0.4228116032276256,9.625887774658205,1.0147221496631496,11.27429561767578,8.097190014648437,9.379285003662108,9.09796630859375,10.32978306274414,1.2318167541503922,77.00710219726562,749.4990119306499,0.1743154235849193,0.1565879389291733,0.0612658487703722,-0.2993110743065515,-0.3219199851245266,0.2463698339249621,-0.0434333844389428,-0.8657366014854315,-0.3307465548149559,-0.3931320832307075,-0.1163774886730569,0.2767545945576505,2.575359880996213,1.314644575126311,0.1504087222009766,0.1633597269149483,-0.3808730629651732,-0.2135948634632315,-0.0144056278909837,0.0897674696990115,0.1160444105715313,-0.1398928026407669,-0.0086600306396664,-0.0920627872616856,0.0584885146279015,0.1505513018895871,0.6175268002285277,0.0661257658487716,-0.1055720064413863,0.0040026772913915,-0.0325075606652456,-0.3496296429636811,0.0211004977316489,0.1708907366980859,0.2599341504306058,-0.249542113663006,0.0462312404917581,-0.099124043014029,0.1550478562601832,0.2541718992742123,1.2040107213948663,0.2371909991499028,0.072269939191297,-0.6377157295015287,-0.1628182426450936,0.2657322447920093,1,normal_operation,0.4194166013800418,weak_normal,2025-04-03 00:47:01.078492
0.6796539962768554,1.655916929819108,3.605667700195312,-2.916137622070312,0.8690952026367187,0.5698199951171874,1.0097545501708984,0.439934555053711,11.269507214355468,25.63192346493313,-0.0231132754936739,-0.4182745227476837,0.0407321494511122,-0.0368694103349997,-0.8307879760742188,1.836801336247165,1.3263877197265623,-5.058948107910156,-0.7062894897460937,-1.2030863342285154,0.3669114044189453,1.5699977386474608,11.42991872558594,32.51238248023094,0.2531546451480818,0.0804774315658202,-0.2262106115347792,-0.3051245250192625,9.391854562377928,1.2877715851953846,12.2966197265625,8.097190014648437,9.160215551757812,8.475473876953124,9.619902270507811,1.144428393554687,75.13483649902342,718.922302211966,0.017444030233644,-0.4582471084276699,0.037146245649328,0.1106512089417681,-0.1684042881313612,0.1725123614234371,0.0570229709811887,-0.4865604907086482,-0.1023215927886751,-0.2590348395564866,-0.0609199847690386,0.1981148547874479,1.4612802470132675,0.4649641528393691,-0.5430253600227364,0.2426136029829498,-0.0768523922436869,-0.079878912355425,-0.0474802833724793,0.1391377377917857,0.1160444105715313,-0.2840490049810618,-0.0086600306396664,-0.1445225882519731,0.0713786371569435,0.2159012254089167,0.916497704157938,0.1729094990955731,0.1596732131078911,-0.2347626947290978,-0.0983761500136524,-0.1487215747733821,-0.0791060491123384,0.2598881688668265,0.3377411949469943,-0.3413384384434711,-0.2266929558983474,-0.2824169222835862,0.1723013019192111,0.4547182242027973,2.114379788484733,0.5903970185849265,0.3246495500203996,-0.0981841858011524,-0.5704241792959893,-0.3429890235965908,1,normal_operation,0.9637996946911698,strong_normal,2025-04-03 00:47:01.078492
1.1267711563110354,2.2338764134188596,4.862623571777344,-2.916137622070312,0.8858546142578125,0.2603694305419921,1.7292121490478514,1.4688427185058592,14.846444494628908,50.078536552988915,0.2054270631641239,-0.0581675923469834,-0.0608703026777114,-0.2700274388147562,0.5129577056884765,1.2490258584118916,1.8507178833007811,-1.7788918334960937,0.9074024291992188,-0.1298854400634765,1.447893453979492,1.577778894042969,9.907206469726562,14.585529622453986,-0.1032086176444719,-0.3951573085597507,-0.049323767588289,0.1222697691209454,9.845256501770018,1.4819356140973303,12.2966197265625,7.975085729980468,9.660603698730467,8.760982424926757,10.652401736450194,1.8914193115234372,78.76205201416015,793.0016699997989,-0.3562512247747383,-0.23035554101856,0.2388833531166531,-0.2672310741333082,-0.2067082698068093,0.2066711480695864,0.0570229709811887,-0.5887488522567131,-0.1430237367951078,-0.2841156206013669,-0.0665490046848219,0.217566615916545,1.767712100416852,0.6835301780074049,-0.3853365910830905,-0.1657073483834175,-0.0805882811604722,0.0840799276811345,-0.0309096478215789,0.2130723290891936,0.4168805518694853,-0.2840490049810618,-0.0355061256226327,-0.207874043162149,0.0583219755771386,0.2661960187392876,1.4146493127996784,0.3708417900155812,-0.0386026457829536,0.0317109324752557,-0.0990369596368548,0.0593915618017285,-0.0301269142829937,0.2879042446817609,0.4934885152203814,-0.3413384384434711,-0.1062519143866776,-0.2824169222835862,0.1298005361645401,0.4122174584481263,2.024448701072812,0.670371880559921,0.0632002619329775,-0.3794322736236915,-0.3922734833402986,-0.0744521599830597,1,normal_operation,1.5639091695001692,strong_normal,2025-04-03 00:47:01.078492
2.6015993789672853,1.9930650097712672,4.862623571777344,-0.4955997436523437,3.3123779968261715,0.7703343841552733,4.265868807983398,3.4955344238281243,21.803994519042966,85.92501969454004,-0.4579469047446022,-0.0309134058667128,-0.1109262625685728,0.3159909588100092,1.5643115097045897,2.1477416615427383,6.358999609374999,-1.7788918334960937,1.4772224243164065,0.7625532287597656,1.8830396057128904,1.120486376953125,16.072275744628904,56.47891795296492,0.0872866747843081,-0.1109274180449884,-0.0583223893841583,0.0964326932660228,9.884461553955076,1.5553081169225849,12.837709301757812,7.975085729980468,9.452308154296873,8.83639977722168,10.557232220458983,1.720832443237306,79.07569243164062,800.9725084014505,-0.4448509504761858,-0.1501848938030661,0.429947034827097,-0.435279171277657,-0.2996204062273854,0.3454916341086414,0.1169770292558031,-1.018419603224783,-0.1430237367951078,-0.5016156208976069,-0.078140122617914,0.4234754982796929,2.630917308330689,1.673094856535382,-0.0700753975577201,-0.4918960128910016,0.210252149934495,-0.1035369821458399,-0.1131632849933346,0.2862109170289995,0.4168805518694853,-0.6339142428235893,-0.1376944871706976,-0.228325038595823,0.0473637060369453,0.2756887446327683,1.93944716956347,0.7577809447765081,0.27215733273664,0.0812085407914355,0.0312778791085857,-0.1043269011360392,0.1101988898897564,0.212358106083578,0.4934885152203814,-0.1384272589940541,0.0931286371865676,-0.0793725115935589,0.1922193723904441,0.2715918839840031,1.497119450737426,0.4579180844187109,-0.3529584410592309,-0.0643026626843641,0.0506750410338611,-0.4148361497745539,-1,potential_anomaly,-0.11623913246511708,borderline,2025-04-03 00:47:01.078492
1.1150994232177731,2.605308033888608,4.594472985839843,-3.5817256835937497,1.228225451660156,-0.6051344696044922,3.0825346374511717,3.687669107055664,18.942923535156247,64.24861340084107,0.0559375036782242,0.4024678370795931,-0.4139744638475225,-0.0579224450084696,2.0916344253540036,2.1438738820120884,6.358999609374999,-1.388636962890625,2.213439434814453,0.9062053283691404,2.8467057739257813,1.9405004455566408,19.51034932861328,71.76903833039644,0.054360783506356,-0.0738523012922063,-0.1960244045311356,-0.4552187069674186,12.020687985229491,3.7081312204021826,18.34197891845703,7.3669585083007805,11.28746372680664,8.83639977722168,15.120580584716796,6.284180807495117,96.16550388183596,1265.9774142876963,0.1677641700119782,-0.1183705984713888,0.0016911950290373,-0.0887475540531424,-0.2873298242810894,0.345465619960541,0.1169770292558031,-1.018419603224783,-0.2312228180790961,-0.4517871369093718,-0.0454318530480966,0.4063552838612752,2.662359881114709,1.6152393799689813,-0.0838728373694078,-0.1626411572208848,0.0662235324019753,-0.1798766724417417,-0.3990941812480163,0.3165752376152214,-0.1057856050445418,-1.1024885160498532,-0.2971056665608667,-0.5192021446581605,-0.149718606635773,0.3694835380223874,3.1927534499841306,2.0759683726172677,-0.1934928342110547,0.0460819242079972,0.0264325157428617,-0.2069062915877116,0.1835093800355488,0.2225358578015461,0.6080673821452,-0.0952603370363317,0.1277021441249285,0.0186856814955881,0.3392067385937071,0.3205210570981189,1.750525270378129,0.6655832045480115,-0.5898473649705419,0.1162604678349256,0.3012578930292285,-0.4137640311830957,-1,potential_anomaly,-1.3394152941443866,strong_anomaly,2025-04-03 00:47:01.078492
2.155978594970703,3.536545244908667,8.757989672851561,-3.5817256835937497,1.8746598999023436,0.0430956298828124,4.335899206542969,4.292803576660156,26.278757421875,137.2431677700636,0.0187626687984373,0.1291241232025645,-0.1443804902423254,-0.3137145389654458,0.6102221481323242,1.991355349532229,3.299209887695312,-2.750937707519531,0.3926490722656249,-0.5015852478027344,2.50912333984375,3.010708587646484,13.984531896972657,34.70293758545483,0.2887749540409529,-0.0496711691810385,0.0729219280843708,-0.1845095408007224,10.802637890625,5.144304699546448,18.34197891845703,1.0438719238281249,10.68053360595703,7.738658316040039,15.120580584716796,7.381922268676758,86.421103125,1145.2868499019407,-0.0870896171515481,0.0361412157193788,-0.4794479674915176,0.0936582932483577,-0.3024349161852769,0.3920049198998371,0.073943338538691,-1.230390507035697,-0.2133032162170169,-0.3689173052497937,-0.0684142420533654,0.3005030631964283,2.6971332349139847,1.961077886029386,-0.2862824794892336,-0.1659120810429001,-0.2446532930298553,0.1507546996923929,-0.1068514549694238,0.5317856416929228,0.8830566627647646,-1.1024885160498532,-0.0638177642523117,-0.3311795563469392,0.1049862176008802,0.4361657739478195,3.1298683044160907,2.353705617118692,0.1843648652088171,-0.0002506094546385,-0.3425014945867386,-0.0897680775479695,0.1855578103599314,0.3149662241094718,0.6080673821452,-0.4691071981887049,0.2892450233648618,0.0186856814955881,0.3559938749105991,0.3373081934150109,2.514606435277937,1.0690833865228024,-0.4020069073291968,0.128537849962036,-0.4258212011520659,0.1290659938435636,-1,potential_anomaly,-1.234808928975967,strong_anomaly,2025-04-03 00:47:01.078492
3.8007951354980465,2.141556841490748,8.757989672851561,1.6615759521484377,3.5158851379394527,2.078765591430664,4.335899206542969,2.2571336151123047,30.406361083984372,152.25847493889154,-0.031044124208837,-0.166294285753567,0.2169723439796622,-0.2787638672246053,-0.4976946701049804,1.3222104325268562,1.637633935546875,-2.750937707519531,-0.5063736511230469,-1.0672153900146486,0.0933738647460937,1.1605892547607424,9.239224206542968,15.967523300270091,-0.4824785229540611,-0.0116303675964484,0.2380799737385366,-0.4985575663215944,8.598475987243653,3.0901077336369536,10.742782849121092,1.0438719238281249,10.109516510009763,7.793724954223633,10.64222637939453,2.848501425170898,68.78780789794922,667.8604408695089,-0.1500701729700595,0.1727828925957142,-0.1382665232299214,-0.2130192263024552,-0.3068815088406441,0.3717938796030518,0.073943338538691,-1.230390507035697,-0.2520068916142957,-0.3093629406970101,-0.0995903523561649,0.2097725883408452,2.602938747802535,1.8592555950287917,-0.074687225808355,-0.3181700017136863,0.0843673304753862,0.0820546532372679,0.1684209420364375,0.2756184434937234,0.8830566627647646,-0.0218499234600816,0.0776738132757781,0.0544249617892888,0.1078839970841533,0.0534590352948644,1.391333845692884,0.8346491208827507,-0.147209274953456,-0.0493371825553334,0.0735294647852047,-0.0720511286845414,0.2133198701220932,0.2759637635909222,0.4471240434880129,-0.4691071981887049,0.3013690662603949,0.2172335378150194,0.380575038803191,0.1633415009881715,2.644773357354155,0.9732909264333848,-0.0797349751464159,-0.197297272409338,0.047737055268754,-0.2018793920839516,-1,potential_anomaly,-0.4231340630137477,borderline,2025-04-03 00:47:01.078492
2.009932293701172,1.1942141322265394,3.83072265625,-0.181959326171875,2.175132208251953,1.6298527801513671,2.4863784240722655,0.8565256439208984,16.443377001953124,43.72780175097952,0.4351396929007027,-0.4017828881723261,-0.4835958562395057,-0.1231803597931234,0.3238157745361327,1.8927601763557615,3.3111808959960936,-1.8267758666992189,-0.6296750366210937,-0.9714473236083984,1.974617819213867,2.9460651428222655,13.278242407226562,29.49918192829384,-0.3913447373702757,-0.0057173105002587,0.047769894646503,-0.1265662496201159,9.484629876708984,1.2319993886485414,11.180921752929686,7.587225061035156,9.861716638183594,8.295310202026366,10.358513482666016,2.06320328063965,75.87703901367188,731.8082111343285,-0.5560856295820719,0.494717959127795,-0.4075018528921641,0.3031628987258712,-0.2366852989441165,0.1542393018837869,0.0339739663556148,-0.4627120986394127,-0.2520068916142957,-0.3330781015256354,-0.1626420369749677,0.1704360645506677,1.9614303242641615,0.63847754385491,-0.5619452776892252,0.0693850457656108,-0.1554027138711519,0.3122160576305894,0.0505446019065151,0.0735939193338957,0.1568131701982691,-0.0873996938403267,0.0726110261325885,-0.0031642419644934,0.0938281011997714,0.0969923431642649,0.6039372136862818,0.0637665739584964,0.0818384994321148,-0.2592283909950194,-0.3910420488262663,-0.0897917356177704,-0.0130566615798049,0.3556939034436139,0.3907672287098754,-0.5145390512368017,0.101722052205929,-0.4087867540024123,0.3041336145030577,0.71292036850547,2.606802453780233,1.0135090348685156,0.1607350351600135,0.2700421932788472,0.0759006206474392,-0.3642181675993611,1,normal_operation,0.021038922497306878,weak_normal,2025-04-03 00:47:01.078492
1.2608464492797853,1.0009738372539712,2.741360900878906,-0.181959326171875,1.1587936035156248,0.527322915649414,2.231994497680664,1.70467158203125,10.450690246582033,20.73345913222705,0.1565266693609252,-0.6391472600042675,-0.3464842808247006,0.2956757954119117,0.5009866973876953,2.262335849915846,3.3111808959960936,-3.5314474487304683,0.1723825195312499,-0.7003039855957031,2.841917370605469,3.5422213562011717,15.466542724609374,42.95320935019106,0.0774436991650676,-0.2872929092380709,-0.2163035057164438,-0.0755284502025644,9.301473449707032,1.3690516346286872,11.645396875,7.548917834472656,8.930372192382812,8.295310202026366,10.103531005859374,1.8082208038330077,74.41178759765626,707.1336857110743,-0.3505188808718634,-0.0350849560864617,-0.2598949775634582,0.2977014491047173,-0.2004963632133562,0.3036420606677423,0.4621791736769717,-0.5148055137180221,-0.2933751918237796,-0.409952527357752,-0.099124043014029,0.3108284843437229,2.5962771857720224,1.0591783413466798,-0.259099084649794,-0.2449262233068682,0.1478167088943799,-0.0677113679446209,-0.0224328101377515,0.1121183822443058,0.1568131701982691,-0.2287580401278064,-0.0256470138174739,-0.0759084993376923,0.0196849158001651,0.0955934151378574,0.7241117927167311,0.1045901008620535,0.1414033307816652,-0.0364502238859727,-0.0851777739239832,-0.2631589009581055,-0.0838857198692312,0.3811666157994234,0.7346370607249415,-0.5145390512368017,-0.1065849924882033,-0.4087867540024123,0.0717450230686218,0.4805317770710341,2.4665099574176352,1.218598423983715,0.177950678105265,0.0801149711832548,-0.0751599027662439,-0.300456491703538,1,normal_operation,0.9219587749949216,strong_normal,2025-04-03 00:47:01.078492
1.165676933288574,0.8480962510567964,2.741360900878906,0.0478840332031249,1.1587936035156248,0.5291185668945312,1.6699556579589845,1.1408370910644532,9.325415466308591,16.62455971086118,-0.4463906095610362,-0.0538675120149577,-0.0693447980011493,0.1022695646597427,-0.0296282455444335,2.035657180054067,2.7940333374023436,-3.5314474487304683,0.1723825195312499,-1.522113705444336,1.5921441040039062,3.114257809448242,14.176068029785156,33.158223901117736,-0.0796337810304417,-0.1365495651152235,-0.1911410170351097,-0.2062851334535481,9.203311181640624,1.329262292592489,11.645396875,7.41244833984375,8.930372192382812,8.495226040649413,10.120888967895509,1.6256629272460934,73.626489453125,691.7429995889566,-0.049482113008124,-0.2431647919571187,-0.0506098584661201,-0.4526870025815272,-0.1323818914513637,0.272356405046236,0.4621791736769717,-0.5148055137180221,-0.1297672283543875,-0.2818506895109927,-0.0656830016208552,0.2161676878901374,1.9834134789648536,0.7336238124315999,-0.0774070906195247,-0.3374137005403117,0.0504706291082055,-0.1926749798761642,-0.057805704519774,0.0965234463406717,0.0562235835375272,-0.2287580401278064,-0.0275122511860174,-0.1015888209653188,-0.0041634762690704,0.0974253446962483,0.6734839212848346,0.1012662013480637,-0.4341280494965809,0.1233003858231533,-0.5398057049016255,0.3930843123540661,0.0251140888550329,0.3070371897363023,0.7346370607249415,-0.3168238901711844,0.0065283307899024,-0.2151351457754078,0.0822369832666793,0.2973721290420872,1.7053598798112528,0.7592204267214766,-0.0756347604603213,-0.4190641989903538,-0.281794586889665,0.2000077387710971,1,normal_operation,1.0747109437668443,strong_normal,2025-04-03 00:47:01.078492
1.3685855239868163,1.2127145084650102,4.108450048828125,0.105344873046875,1.1444283935546875,0.4363432525634765,1.774103430175781,1.3377601776123045,10.948684191894532,26.749622524062396,-0.1387275850109272,-0.3618890907756624,0.1199037292415177,-0.244108971354916,-0.5509656570434571,1.5553304317552266,2.109291662597656,-2.882618798828125,-0.7218518005371093,-1.522113705444336,0.1771709228515625,1.6992846282958984,11.46583175048828,21.78092725748182,-0.3915013983821739,0.2516326954662887,-0.2637243360114445,0.1215453599396136,9.323021264648435,1.56077113768665,11.286266625976562,6.526593725585937,9.692925421142576,8.461108666992187,10.430938082885742,1.969829415893555,74.5841701171875,714.8378563625809,-0.1791514081917787,-0.3400632399441138,0.2748743289947791,-0.2702172218545479,-0.260067381671216,0.338005589633124,0.0810045942910345,-1.0874333858608944,-0.1805283310268943,-0.2811179176876362,-0.0656830016208552,0.2154349160667809,2.2425482419517975,1.455062573060462,-0.1568811707955525,-0.0260532260800388,-0.2142658769933503,-0.0943900098352463,-0.0092928790325652,0.075749891348912,0.0562235835375272,-0.1901209803508327,0.0046630934213588,-0.0263797856408302,0.0507277948623542,0.0771075805031845,0.4300704446899001,0.046595229120687,-0.5550771205989603,0.2963312322765015,-0.2732803409562622,-0.0045533209632573,-0.0832029097611037,0.2535917375575699,0.4236753451406082,-0.377977029611291,-0.1396929557798514,-0.2829498472460272,0.0458648545800799,0.3288147018261071,1.8260673838041432,0.5698519484014541,0.074569604083232,0.0171001321657005,-0.6057000503807121,-0.1761622566694753,1,normal_operation,0.7427553464949739,strong_normal,2025-04-03 00:47:01.078492
1.5894506271362303,1.3845584765112584,4.108450048828125,0.1867477294921875,1.159990704345703,0.4363432525634765,2.1877017669677734,1.751358514404297,12.715605017089844,35.546843767863464,-0.2695912781097175,-0.2787201017748696,-0.1173293438741907,0.4071069304718581,-0.7891887222290038,2.213739802414646,3.0885201416015624,-4.405331054687499,-0.7218518005371093,-2.1535843933105467,0.1915361328125001,2.345120526123047,15.444994909667969,44.18770201670629,-0.6787718011385515,0.1684419459561332,0.1412849484250971,-0.1815222178702285,9.076717768859863,1.7721784774192282,11.286266625976562,6.526593725585937,9.106346014404297,7.724293106079101,10.902595809936525,3.1783027038574216,72.6137421508789,684.2193760909144,0.0586589422713559,-0.4579329919232491,-0.0156215853561191,0.2311686048357039,-0.1381274887026809,0.44716494070052,0.4445926499164181,-1.0874333858608944,-0.1503514550286717,-0.2811179176876362,0.151017611231723,0.4321355289193593,2.8783277221439305,1.7522854986160707,-0.0570851811553207,0.191676653577789,0.0806007775284753,-0.3533983994595375,-0.0108250382995831,0.0945817892817137,0.177197550011638,-0.1482863707992129,-0.0181860643432996,-0.0549911945618823,0.0267461715525084,0.0817373661143908,0.585684533722677,0.0725031705433435,0.2359182665018248,-0.2406833110786931,-0.4241464486766085,0.1204775923865194,0.0801718990372204,0.2804050772173559,0.4236753451406082,-0.377977029611291,0.1167105667745826,-0.1107817765674263,0.3314460188281597,0.4422277953955861,2.05495865517256,0.6804363257960451,0.1518589646078463,0.015501465519938,-0.4702334371611315,-0.326885784488348,1,normal_operation,0.5503485820606167,strong_normal,2025-04-03 00:47:01.078492
1.1680711349487305,0.9738828655729536,3.478775012207031,0.1867477294921875,0.9636661682128904,0.6093243225097655,1.27670803527832,0.6673837127685545,9.344569079589842,18.502704097256014,-0.3469720588908829,0.2569193624010391,-0.1570055923769159,0.0753982632657233,-0.7472901931762694,2.349514163262819,3.0885201416015624,-4.405331054687499,-0.7541735229492186,-2.530671154785156,0.7751227874755859,3.305793942260742,16.99643758544922,48.62927548952008,-0.6625479788155055,0.3516670060130425,-0.2555048687159489,0.0459064256465319,8.951920007324219,1.2156657655969616,10.965443603515624,6.663063220214843,9.153032946777344,8.205527639770507,9.657012396240232,1.4514847564697266,71.61536005859375,652.9177205694086,0.0024688317267178,-0.3476218828090378,-0.2868751436353884,0.0759286967264222,0.0358725115343109,0.2524256317797291,0.4445926499164181,-0.2352863709177088,-0.0870000001184959,-0.1645738899638164,0.2715252683636979,0.4360991583275143,1.807681472599928,0.5200442933053975,-0.656511884677623,0.2790342775230278,0.1288983672097751,-0.4033995812047657,-0.0568897397405785,0.1256479383275066,0.177197550011638,-0.242747320391883,-0.0757419602869294,-0.1408920369453438,0.0002997702913731,0.1411918072367169,0.95420214525064,0.1521907751496293,0.0145805669645819,-0.3698763383977793,-0.1121257742553151,0.2324817883456656,0.1627086525952728,0.1683105410012151,0.3737136299117629,-0.1406921900844283,0.1781301686959098,0.0325084227089019,0.3217201382636112,0.2892117155547093,1.5830536009310396,0.4384203507319272,0.0773258424629746,-0.5100127246537581,-0.3625994642267539,0.1598294954356786,1,normal_operation,0.27181899897630757,weak_normal,2025-04-03 00:47:01.078492
0.4177881896972654,2.0362143214923054,2.6336218261718747,-4.678270043945313,0.9636661682128904,0.4944026428222656,1.2419921112060543,0.7475894683837887,12.698845605468748,34.5657258760071,-0.0188204204480295,-0.4384181509563477,-0.0879439691806472,-0.0214212613026126,0.0906803878784179,2.384727745928215,5.2816088623046875,-2.6958710693359373,0.3303998291015625,-1.8417396270751951,0.6667851623535155,2.5085247894287104,14.329296936035156,45.561194839565175,-0.0813513435170915,-0.2466764288240825,-0.1920867760001208,0.1041909328749293,9.982025271606446,1.1587779903960007,11.872846032714843,8.24802471923828,9.677363110351562,9.35833573913574,10.466851107788084,1.108515368652343,79.85620217285157,807.8687596321272,-0.0772934929208816,-0.3661296906746142,0.3090280603362596,-0.0283448884003311,-0.133164624989949,0.1662707066999447,0.241681470467001,-0.3354762638566199,-0.147353752114941,-0.247477029433547,-0.0827366004189677,0.1647404290145792,1.548679940853594,0.3630301220417022,-0.1588277252753868,-0.2735181685025783,0.2102608198398844,-0.0051569252994642,-0.072227986315834,0.1369281188989042,0.1388269527158848,-0.2791194490784824,-0.063484686150786,-0.1645072743435113,0.016787136316892,0.1812944106604033,1.0001669232611776,0.1917295340194621,-0.1575300407172975,-0.1177971090338474,-0.4490765938976731,0.0700615607766387,-0.0226326569986669,0.182930950163926,0.3348101076535687,-0.2829831550561798,-0.0610199081994963,-0.1438231242387693,0.0584218990075963,0.2022450232463656,1.216800920493451,0.2718077575255688,0.399055804220883,-0.1708653271601506,-0.4816249967313594,-0.2420616293009766,1,normal_operation,1.1803707036333022,strong_normal,2025-04-03 00:47:01.078492
