accel_x_mean,accel_x_std,accel_x_max,accel_x_min,accel_x_median,accel_x_q1,accel_x_q3,accel_x_iqr,accel_x_sum_abs,accel_x_sum_squares,accel_x_acf_lag1,accel_x_acf_lag2,accel_x_acf_lag3,accel_x_acf_lag4,accel_y_mean,accel_y_std,accel_y_max,accel_y_min,accel_y_median,accel_y_q1,accel_y_q3,accel_y_iqr,accel_y_sum_abs,accel_y_sum_squares,accel_y_acf_lag1,accel_y_acf_lag2,accel_y_acf_lag3,accel_y_acf_lag4,accel_z_mean,accel_z_std,accel_z_max,accel_z_min,accel_z_median,accel_z_q1,accel_z_q3,accel_z_iqr,accel_z_sum_abs,accel_z_sum_squares,accel_z_acf_lag1,accel_z_acf_lag2,accel_z_acf_lag3,accel_z_acf_lag4,gyro_x_mean,gyro_x_std,gyro_x_max,gyro_x_min,gyro_x_median,gyro_x_q1,gyro_x_q3,gyro_x_iqr,gyro_x_sum_abs,gyro_x_sum_squares,gyro_x_acf_lag1,gyro_x_acf_lag2,gyro_x_acf_lag3,gyro_x_acf_lag4,gyro_y_mean,gyro_y_std,gyro_y_max,gyro_y_min,gyro_y_median,gyro_y_q1,gyro_y_q3,gyro_y_iqr,gyro_y_sum_abs,gyro_y_sum_squares,gyro_y_acf_lag1,gyro_y_acf_lag2,gyro_y_acf_lag3,gyro_y_acf_lag4,gyro_z_mean,gyro_z_std,gyro_z_max,gyro_z_min,gyro_z_median,gyro_z_q1,gyro_z_q3,gyro_z_iqr,gyro_z_sum_abs,gyro_z_sum_squares,gyro_z_acf_lag1,gyro_z_acf_lag2,gyro_z_acf_lag3,gyro_z_acf_lag4,prediction,prediction_label,decision_score,confidence_category,evaluation_timestamp
1.651101319885254,0.9186124159987604,2.6695348510742187,-0.0550666381835937,1.7010802795410156,1.1647791076660154,2.571372583007812,1.4065934753417966,13.318943835449218,28.559874714831256,-0.2553649647664767,0.1190501272240594,0.1058990107484243,-0.4066614927219644,0.782006117248535,1.7238048018726069,3.591302490234374,-1.7932570434570312,0.5829881042480469,-0.3100491149902343,1.7112556365966796,2.021304751586914,11.91115325927734,28.66429249898549,-0.5194468825594019,0.4974328231929438,-0.3084361586547714,-0.0310794300176192,8.304587733459472,1.1039320487969242,9.366116894531247,5.674257934570313,8.444349255371094,8.196549383544921,9.056666329956055,0.860116946411134,66.43670186767578,561.4787471286921,0.2327246816001795,-0.2515555548532708,-0.3639481228648379,-0.1849403725408907,-0.0999900460779957,0.2410096800411528,0.4369984692016336,-0.2820505363719081,-0.2137029099388476,-0.2533725118305507,-0.07600842276815,0.1773640890624007,1.969157736219556,0.5446694015057485,0.1409228097702919,-0.3415046948227684,-0.1771557301865827,-0.2234506672314022,-0.0535089970100933,0.1468515012499194,0.185058193207643,-0.2777871366723799,-0.045098774946571,-0.1171435683065659,0.0246810873230495,0.1418246556296155,0.9679249630334964,0.19542860944305,-0.1509740662691027,-0.1960753217167891,0.2286641204635087,-0.3797533410838121,0.1337308577625426,0.2804981097052985,0.5888820834973234,-0.2403491580608985,0.1009226647622675,-0.082869831659578,0.3740800158234411,0.4569498474830191,2.047231243217165,0.7725050549292086,-0.049149643749171,0.0130004708837802,0.0180126141720435,-0.4586115647336178,1,normal_operation,0.4408726400763343,weak_normal,2025-04-03 00:47:01.018787
0.7607575775146485,1.4069615993511748,2.5546131713867184,-2.31758720703125,0.8331821777343751,0.3902548706054687,1.8189947113037108,1.428739840698242,10.831368310546871,20.466344270358174,-0.333857934216782,0.0772853450552187,-0.0045658985943257,-0.1692221419262455,0.2385223403930663,1.3594027070238155,3.086125939941406,-1.7932570434570312,0.2286462585449219,-0.6344634399414062,0.6847416748046875,1.3192051147460937,8.439560852050782,15.238949013842104,-0.1919656581496918,-0.2215178218355877,0.0992190395518479,-0.0264468592699169,8.715193318176269,1.447057957962585,11.250353601074218,5.674257934570313,8.85495484008789,8.330026126098632,9.211690887451171,0.8816647613525408,69.72154654541015,624.3885704550971,0.1661513822156491,0.09849810552003,0.0240611606305917,-0.4890633309322001,-0.1092995790156372,0.2507220088090935,0.4369984692016336,-0.3777105671300705,-0.1983813172686684,-0.2552710570092469,-0.0812044411519499,0.174066615857297,2.0436339997206883,0.5984633893941018,0.3156697335543623,-0.1300962377650882,-0.0686615927926477,-0.0951509387575905,-0.0935616387185509,0.1549260900444798,0.185058193207643,-0.2777871366723799,-0.1203744258913646,-0.2205976266404283,-0.0013989280264076,0.2191986986140206,1.2744900476776913,0.2620469889293673,0.1534003427223929,-0.1110599453117707,-0.3400386112726677,-0.2543766922519032,0.1981981243128293,0.2096422564313914,0.5888820834973234,-0.1199081165492287,0.1731339971730252,0.0846684534078164,0.3086301688736538,0.2239617154658373,1.8531133256480248,0.6658589773021522,0.0006803762958452,-0.1396232631031135,0.0951495723959327,-0.1926949554324738,1,normal_operation,0.9479250160921007,strong_normal,2025-04-03 00:47:01.018787
0.8930372192382812,1.6727739754257174,4.129997863769531,-2.31758720703125,0.8140285644531249,0.4746504791259765,1.20667763671875,0.7320271575927735,11.779472167968748,28.76550598245121,-0.2308141610233335,0.1700735788556688,-0.4855152030703694,0.0388797187748226,0.0939724151611328,1.5345281327817826,3.086125939941406,-1.9105729248046872,-0.4273649963378906,-0.8972270721435547,1.073200894165039,1.9704279663085935,10.319009155273438,18.90885924087968,-0.2116723634049404,0.0091658125109257,-0.1958230643197911,-0.2215366070332327,9.450512503051758,0.7326645834126584,11.250353601074218,8.767566479492187,9.192537274169922,9.119514123535154,9.39245311279297,0.2729389892578151,75.60410002441407,718.7918716969987,-0.0189274261096472,-0.1274903476191904,-0.055668708933583,-0.0519286407912782,-0.1661560109460632,0.2099391505110212,0.1532159267017923,-0.4814977035654585,-0.1836592651812353,-0.279685681851076,-0.0809712864808819,0.198714395370194,1.9327856075329568,0.5734581351263799,-0.7542201592799543,0.4599946139125649,-0.1179019163153001,-0.098346205411698,-0.0506278714318965,0.158276260599212,0.2760551305444466,-0.2564701381747393,-0.0329081164307327,-0.1817607200025392,-0.0082603369178357,0.1735003830847034,1.0581225129266385,0.2209164482799545,0.3331749392094277,-0.0313688564853582,-0.3727911548233625,-0.3008403066604714,-0.0570063170761125,0.3677255941931171,0.2868468610338772,-0.9296875969783536,0.0377044410927019,-0.1357293263716963,0.1689039052836496,0.304633231655346,2.093728946190144,1.1077746624901066,-0.0939687834198633,0.0029340450280395,-0.3287856655900836,-0.0641753683918973,1,normal_operation,1.0685110497997368,strong_normal,2025-04-03 00:47:01.018787
0.843956085205078,1.4000855489966275,4.129997863769531,-1.0223241088867188,0.5207388610839843,0.2262520568847656,1.0492588775634766,0.8230068206787109,8.796296899414061,21.380011346110955,-0.1375246823732216,0.0850285368808206,-0.1061136438237592,0.1606114283500222,-0.8454524612426757,1.691103730176984,1.5275006591796874,-4.580107775878906,-0.2214636535644531,-1.4024036224365233,-0.087388360595703,1.3150152618408202,9.81862100830078,28.596973523518468,-0.0379565881398021,-0.0200039182578319,-0.5552047130775761,-0.0680328225421309,8.904335249328613,1.0921906317286516,9.950302099609374,6.224924316406249,9.085995300292968,8.805275155639649,9.579200842285156,0.7739256866455069,71.2346819946289,643.840532867775,-0.1618769110162005,-0.2262985749975052,-0.2297934216030136,0.0238891337862822,-0.0730440276645718,0.27062746197356,0.2688606435514929,-0.4976186836792993,-0.0001998468609153,-0.2519735838041431,0.149718606635773,0.4016921904399162,1.757320063649252,0.6285972252137073,-0.7142740956828596,0.3712266871609808,-0.4208792229059467,0.4517073336322594,0.078373277288982,0.1613507987427931,0.2892450233648617,-0.2085068915550477,0.0639509954929219,-0.0303767228591379,0.2250941810110243,0.2554709038701623,1.1756324671448826,0.2574116067836239,-0.5149852641595426,-0.2159459542383546,0.4935126985828154,-0.4069613209756251,-0.1765813555238156,0.3433577023971146,0.2868468610338772,-0.9296875969783536,-0.1681378256501406,-0.2376179176283882,0.0079938744366152,0.2456117920650035,2.302901993948243,1.1926038953124298,-0.2910849663158462,-0.1132649762183344,0.1371328164978804,-0.3038744440830903,1,normal_operation,0.33800122337163296,weak_normal,2025-04-03 00:47:01.018787
0.3022679595947266,2.1127418008196575,5.1882349975585935,-2.427720483398437,-0.0754173522949218,-0.8894459167480468,0.6093243225097655,1.4987702392578124,11.425130322265623,36.44035069062599,-0.1084156551345247,0.1129115672029623,-0.4231798641730411,-0.0111259238629016,-0.038905776977539,1.867033605087696,2.0302830078125,-4.580107775878906,0.1041477722167968,-0.1274912384033202,1.0983400115966797,1.2258312499999997,9.442731347656249,27.89862513607189,0.1169340889177807,0.1035890089955831,0.0594443473769948,-0.2179900871294557,8.238148637390136,1.5167387687301888,9.950302099609374,5.442020373535156,8.680178118896483,7.528567120361327,9.469666116333006,1.941098995971679,65.90518909912109,561.340715714417,-0.0735818121068261,-0.4761531045066677,-0.3503568430577328,0.3739351336581997,-0.1742498088131361,0.3010730043373153,0.2688606435514929,-0.5856845337226774,-0.0616860644025476,-0.5075777189149158,0.0282450230093738,0.5358227419242896,2.094261871152585,0.9680635984968926,-0.1783786772123008,-0.1959377606109819,-0.0981989618757003,0.1814930176011488,0.0793058959732537,0.1518754003383808,0.2892450233648617,-0.2085068915550477,0.0470972435557247,0.0108583461097357,0.2162009957002899,0.2053426495905542,1.0621194501449458,0.2348444989125119,-0.3668326375231701,-0.3140422548780019,0.1470404989555513,0.1734170857872583,-0.2585352224041982,0.2862190031485669,0.1582787138449819,-0.7618162338094332,-0.2748560493789543,-0.4247745028756428,-0.0861006892443767,0.338673813631266,2.6145298657356273,1.1900942318955807,0.1645930721154878,0.0050921136936503,-0.0487214131037006,0.0143632997836035,1,normal_operation,0.6631238272245041,strong_normal,2025-04-03 00:47:01.018787
1.1222820281982422,7.5291954102843235,17.446547497558594,-11.18571015625,0.124498486328125,-1.2407950103759764,1.7118541870117188,2.952649197387695,38.31201496582031,463.5864038165063,-0.5744839384788551,0.1947336609268194,-0.0535910281220308,0.0449577293199536,0.0206499893188476,2.0204224859100437,2.480392919921875,-3.6559459350585937,0.6296750366210937,-1.247977615356445,1.464652865600586,2.712630480957031,13.927071057128906,32.66026754903831,0.3491457439341323,-0.0503429624999421,-0.2739318676693222,-0.1743219666415975,9.594763153076173,3.478237799535805,18.155231188964844,5.442020373535156,8.930372192382812,8.03853207397461,9.546879119873044,1.5083470458984358,76.75810522460938,833.260945229983,0.0012158668304148,-0.1269930165354454,-0.1072950914142572,-0.3658518817544373,-0.3649203680314862,0.5210257094027344,0.2800520677627542,-1.5360229729956203,-0.2492756511817855,-0.5495122518969933,-0.0639843033030745,0.4855279485939187,3.6103001580566674,3.237077318902863,-0.6232502136777356,0.226418717015548,-0.0068138129762468,-0.1583817415068106,0.0535423048202458,0.1270835642499902,0.2404823893015087,-0.2145022973825092,0.0638843798726168,0.0108583461097357,0.1228725116528068,0.1120141655430711,0.8680015325758055,0.1521360856635642,-0.1721621574627158,-0.5722452611391299,0.1065255587865185,0.1653783210451317,-0.3522800540785882,0.3326798580142941,0.114845329406039,-0.915298622992446,-0.3078973970502973,-0.539686447901987,-0.1093828485410186,0.4303035993609684,3.047931091440784,1.8782169954401915,0.1810651304528268,-0.1202988132475748,-0.4269024290438308,-0.4386235311787818,1,normal_operation,0.000269761280499603,weak_normal,2025-04-03 00:47:01.018787
1.3922282653808593,7.294922854798074,17.446547497558594,-11.18571015625,1.0319009155273435,-0.0035913024902343,1.8345570220947265,1.8381483245849608,36.28173195800781,441.2335920030453,-0.5077146808664306,-0.0120593535394467,0.0437067564188343,-0.0065335652888772,-0.9011176498413086,1.716980624293148,2.480392919921875,-3.6559459350585937,-0.9181763366699218,-1.7399860565185543,-0.5063736511230469,1.2336124053955078,13.24711778564453,30.080283864428893,-0.0825367643987153,-0.3972908496230631,0.0055686631076643,-0.1588468267402469,10.251672233581544,3.1301848352828063,18.155231188964844,7.180210778808593,9.701305126953123,9.004592443847656,9.916184725952148,0.9115922821044916,82.01337786865234,919.1587255025696,0.0275235052470969,-0.1878528209473069,-0.06506750567015,0.032586856715129,-0.3322620601768976,0.491730990359064,0.2800520677627542,-1.5360229729956203,-0.2298238900526883,-0.3380742730485199,-0.1280352222264541,0.2100390508220657,3.218200616940689,2.8175795481000177,-0.3582715085762814,0.0992640700828841,-0.0488424522333675,-0.0868987245700636,0.0693468607376372,0.1192675618139089,0.2173001534353245,-0.2145022973825092,0.0968591119236547,0.0476967841384709,0.1228725116528068,0.0751757275143359,0.9837794806661164,0.1522699071615988,-0.3030031655205029,-0.1306335626908453,0.1359601896878965,0.0962357852624696,-0.2107385148352695,0.314291520590284,0.1600107199729152,-0.915298622992446,-0.0941278714911444,-0.2699598012865275,-0.0394697550307878,0.2304900462557397,2.0059295586279866,1.145519052399424,-0.1335505981448747,-0.051773702358341,0.0560920984196519,-0.2784663599713212,1,normal_operation,4.5478497050499556e-06,weak_normal,2025-04-03 00:47:01.018787
1.0603320602416992,1.1087767592525235,2.1787235107421874,-1.3862427612304686,1.4018050720214843,0.8319850769042967,1.8345570220947265,1.0025719451904298,11.25514200439453,18.829519838679484,-0.2547404169156147,-0.0780199229394363,0.0532759718774913,-0.3403207702238809,-0.7987655288696289,0.6333895872045321,0.5386953735351562,-1.5394716674804687,-0.9038111267089844,-1.3108254089355469,-0.5123591552734374,0.7984662536621094,7.467514978027344,8.313669914316044,-0.4454330171532902,0.1245255569131892,-0.0977916754759054,-0.284575099253237,9.618705169677732,0.9522145147887228,10.369287390136718,7.180210778808593,9.865307940673826,9.74260510559082,10.075997686767575,0.3333925811767582,76.94964135742187,747.4096129868758,-0.1839842978276155,-0.1145065313766863,-0.1115105142125605,-0.1768189469192289,-0.2257603372140756,0.1068745229139661,-0.0506278714318965,-0.4086202149516495,-0.2298238900526883,-0.2784199850652786,-0.1650068914957997,0.1134130935694789,1.8060826977126052,0.4991191480568082,-0.1953445552263137,-0.1603804225993976,-0.3192349180843123,0.2110052072183865,0.0857009955225459,0.0548287328344404,0.2173001534353245,0.0307764165809687,0.0759418071478448,0.0476967841384709,0.0895313936900907,0.0418346095516198,0.6856079641803676,0.0828068046222871,-0.2172757119834198,-0.4772802087596534,0.2170795661838001,-0.0348967918813722,-0.0661326570579149,0.1745601787445826,0.1600107199729152,-0.4659096484140588,-0.0165872894559766,-0.0861673048646818,0.0108916539198882,0.09705895878457,0.9314196031062864,0.2787582746630435,-0.018963452939021,-0.543881434331097,-0.1302146092817451,0.0033378099606747,1,normal_operation,0.24168434268209937,weak_normal,2025-04-03 00:47:01.018787
1.1156979736328123,0.9147714745990032,2.588131994628906,-0.1604115112304687,1.1923124267578125,0.3274070770263671,1.6418237884521485,1.3144167114257812,9.246406811523435,16.65271055286719,-0.5432625947452966,-0.0271109406200015,0.2739187990423575,-0.3306914822565563,-0.3238157745361328,0.8252113221267755,0.7398083129882812,-1.3862427612304686,-0.4548983154296875,-1.0576385833740234,0.6075286712646484,1.6651672546386718,6.536170532226563,6.286643056037253,0.171619338403918,-0.0437024895739457,-0.2027472988535681,-0.1357780832684911,9.88895068206787,0.8859637519898055,11.034875451660156,7.948749511718749,10.062829577636718,9.667187753295895,10.415375772094723,0.7481880187988281,79.11160545654296,788.6102188976836,-0.1691334876963183,-0.4539558025272033,0.109957796078144,0.1624841007152294,-0.2038271442286125,0.1199337319139761,-0.0506278714318965,-0.4086202149516495,-0.1949173050128018,-0.280984686447026,-0.1056523738039315,0.1753323126430944,1.6306171538289005,0.447436838201641,-0.1191822746611493,-0.2960849859466876,-0.3851637849536939,0.178368681622943,0.0320421133667661,0.0655482132893253,0.1075176111724751,-0.0799387443661524,0.0578223584248503,0.0054624808650204,0.0728441808036564,0.0673816999386359,0.5571730482320826,0.0425861223554526,-0.1822482984063372,-0.1115540533561934,0.1480700209665257,-0.052092521250555,0.0914132849637106,0.1819306792917521,0.4695068919105357,-0.1743996939588227,0.0390367534988044,-0.0001998468609154,0.1412251150468693,0.1414249619077847,1.0888989295076068,0.3316412858833195,0.4526507552317901,0.0485178483786042,-0.3473502993335842,-0.2987553497405939,1,normal_operation,0.4867855664639622,weak_normal,2025-04-03 00:47:01.018787
0.9944915145874024,0.97941134725201,2.588131994628906,-0.2609679809570312,0.940921252441406,0.2238578552246093,1.7124527374267575,1.4885948822021484,8.798691101074219,15.58607967769874,-0.3991987779065569,0.1458043164027431,-0.1894887578252925,0.0529789356341649,-0.858022019958496,1.5603845123031184,0.7398083129882812,-4.161122485351562,-0.7829039428710938,-1.2802993377685548,0.6075286712646484,1.8878280090332031,10.809820495605468,25.36801290375279,0.2629495769781097,0.0261110943736486,-0.1477534766376476,-0.0713410426453254,9.127893829345702,1.0404638208687746,11.034875451660156,7.948749511718749,8.73285055541992,8.47786807861328,9.60194575805664,1.1240776794433582,73.02315063476561,675.2080857787536,-0.2052794313679548,-0.1757731058063851,0.3064139552862158,-0.1667944089898826,-0.1191087291055672,0.1613951310247866,0.1925191426818172,-0.3389402761124865,-0.1271692191624875,-0.2312894336994011,-0.040901990867348,0.1903874428320531,1.3712159283607357,0.3218822213412114,-0.4351430601650155,-0.1871225322932881,0.5269076520054182,-0.3893791228532542,-0.0527429173765843,0.1013602456042345,0.0719448699295372,-0.2347534459552678,-0.0752090353244884,-0.1032875192830995,0.052193338509067,0.1554808577921665,0.7973889750523708,0.1044457177787515,-0.1977798222178091,-0.1690470721890115,-0.0147411970814363,0.1537099857858797,0.2143857200469752,0.1821742404476473,0.52946095018515,-0.0022649310903743,0.1594777950104742,0.0858675345733087,0.3120275655092153,0.2261600309359065,1.7196156225565502,0.6331895267418979,-0.2388435495587017,-0.2291737839992606,-0.1546129409877268,-0.0865825594103367,1,normal_operation,0.665249266062268,strong_normal,2025-04-03 00:47:01.018787
2.590226921081543,6.017761509238178,17.769764721679685,-3.3111808959960936,0.9995791931152344,-0.3256114257812499,2.21523508605957,2.54084651184082,28.905196643066404,343.38183267811297,-0.273757772915796,0.1209598413535771,-0.0758994794669306,-0.1270804742589288,-1.2351087814331054,1.795655809058302,1.419761584472656,-4.161122485351562,-0.9121908325195311,-2.4301146850585935,-0.2430114685058594,2.187103216552734,14.281412902832033,37.99898789262397,-0.1320925542239604,0.4216460441326089,-0.3626707501736866,-0.0674881152687474,7.2173209045410145,3.957859391752813,9.804255798339844,-3.1675287963867187,8.622717279052733,8.112752325439452,8.82921717224121,0.7164648468017578,64.07362482910156,542.0349760320854,-0.1195138173287967,-0.0724688417803923,-0.0066622890491834,-0.0189880892699138,0.0130233537696523,0.2944434060661907,0.68147779572145,-0.3004364475761231,-0.0365053599272095,-0.1700030630186842,0.0606202144776655,0.2306232774963498,1.6968330804121965,0.6949322169541534,-0.0535446388085611,-0.0232485267641287,-0.1766864050383091,0.1931511831154305,0.0919628638312279,0.4278636025325287,1.1749663109418316,-0.2347534459552678,-0.0935283309083984,-0.1343970139655938,0.1009226647622674,0.2353196787278613,2.1338315496138307,1.5321954455692377,-0.1280500828785517,0.126784896504514,-0.0115122310048293,-0.2225193261731721,0.0747427259823525,0.5641442162722331,1.0622526813855564,-0.7690107208023871,0.1481531395586026,-0.1798954826339956,0.277853752292685,0.4577492349266806,3.566067386174063,2.590761374725482,-0.6603376854118045,0.1746528169018895,0.1816689502172767,-0.2155364623770215,1,normal_operation,0.15333884472676385,weak_normal,2025-04-03 00:47:01.018787
2.6330232757568357,5.984253737746305,17.769764721679685,-3.3111808959960936,0.9744400756835936,0.0945709655761718,2.089539498901367,1.9949685333251952,28.725631518554685,341.952834947263,-0.383354165119562,0.042201673092968,-0.1655113794389882,-0.0922915816540676,-0.6700771896362305,1.354897862330621,1.419761584472656,-3.4069489624023435,-0.8307879760742187,-1.054645831298828,0.0245405670166015,1.0791863983154295,9.761160168457032,18.278013259351,-0.3956721818896543,0.1817276114565884,-0.3771433691910161,0.0558154204705778,7.574056951904296,4.0893397145779575,9.804255798339844,-3.1675287963867187,9.172186560058597,8.671199862670898,9.280524185180663,0.6093243225097655,66.92751320800781,592.7123040953146,-0.2129673361810899,-0.1847997476798742,-0.0991385796563854,-0.0791024108295071,0.0166872128864343,0.275020648122923,0.68147779572145,-0.2795191428003132,-0.0371715161302608,-0.1155447934192428,0.0305099540997481,0.146054747518991,1.4341010739287752,0.6073185597429588,0.0379212428803242,-0.3834148084091653,-0.4038430151027133,0.1380418541496205,0.1752157353075605,0.3919795639265575,1.1749663109418316,-0.1470872896337205,0.0788728944412704,-0.0262798622103725,0.140792113514886,0.1670719757252586,1.8896186855752344,1.4747882594833863,-0.2818481392870902,0.0456634826012069,-0.2830051654826518,-0.1059193763442602,-0.0477300919486235,0.5373729432210888,1.0622526813855564,-0.7690107208023871,-0.0456316999090119,-0.3293809345987008,0.1622423432531369,0.4916232778518378,3.167439514268182,2.328382734268156,-0.7206842851682324,0.3368936843331299,-0.1460074358766081,-0.0102505380061552,1,normal_operation,0.1365994620669202,weak_normal,2025-04-03 00:47:01.018787
1.5816694717407227,1.079191502414636,4.1754876953124995,0.2992752075195312,1.418564483642578,1.0857704528808594,1.6741455108642578,0.5883750579833984,12.653355773925782,29.33066093376428,0.0390928893834277,0.0165127910411456,-0.2769054038268111,0.0564293810545413,-0.3453635894775391,0.8221483781636183,1.1468225952148436,-1.2880804931640624,-0.5351040710449219,-1.0019733947753906,0.0323217224121094,1.0342951171875,6.4356140625,6.361631717231024,0.1329867683124298,0.0119936682526953,-0.0546712802309662,-0.0048224847523404,9.8572275100708,0.8784260615595525,11.671733093261718,9.145850341796876,9.366116894531247,9.203909732055664,10.262146865844729,1.0582371337890637,78.8578200805664,783.4925322473889,0.5128488558282154,0.1200324110524204,-0.1999758771372374,-0.2361138146437881,-0.201428981897628,0.1866915498279446,0.0924624809835163,-0.4970857587168583,-0.2210306281724116,-0.3136263403965383,-0.0476967841384709,0.2659295562580673,1.7963568171480566,0.603418956203799,0.3075950358894344,0.1180165564517288,-0.0668677108010638,-0.4223535294781639,0.0814875575382466,0.0569955686259679,0.1548147015891153,-0.0109249617300408,0.1040535989166084,0.0450321593262658,0.1194084993969402,0.0743763400706743,0.6820107206838906,0.0791097350123718,0.040276493657082,-0.5707199976162245,-0.4076477174706602,0.3833879430294661,-0.1055857581836264,0.1407442554454751,0.1592113325292537,-0.3476003067521531,-0.1104486984659006,-0.182993108978184,-0.0314425727840199,0.1515505361941641,1.1631087305275185,0.2476583821768991,-0.0694965451317093,-0.168578620319787,-0.3559186125596626,0.0040054025161262,1,normal_operation,0.25327162812927195,weak_normal,2025-04-03 00:47:01.018787
1.7253215713500976,0.967913533182293,4.1754876953124995,0.7852981445312499,1.476025323486328,1.275510934448242,1.676539712524414,0.4010287780761721,13.80257257080078,31.308729058267197,-0.0116299365802998,-0.198305396587514,0.0685431829391188,-0.2764272252798494,0.5596446380615234,1.2244496846238175,2.6144682128906247,-1.0773907470703123,0.3244143249511719,-0.3178302703857422,1.370680450439453,1.688510720825195,8.50899270019531,14.499833208691038,0.2937326084177349,-0.1975423879680419,-0.4401534521506719,-0.3733755410880424,9.74888988494873,0.983187473097586,11.671733093261718,8.504204296874999,9.368511096191405,9.112930068969725,10.262146865844729,1.1492167968750024,77.99111907958984,768.0600927688934,0.4097041345528341,-0.0697194740495149,-0.3527762144822158,-0.4086085472188818,-0.2239117537506084,0.1662514351087899,0.0113246554518716,-0.4970857587168583,-0.2441462484182907,-0.3136263403965383,-0.0742098010199115,0.2394165393766267,1.8139433409086103,0.6222081051472422,0.0921650951014499,-0.0668071071671892,0.1657958761082432,-0.3845999586874283,0.0525930322308978,0.0677436888801822,0.1548147015891153,-0.0567565084999682,0.0502947933303709,6.661562030512488e-05,0.1132132467085634,0.1131466310882583,0.5561071983072006,0.0588418753786814,0.2711431425035763,0.1664582234912134,-0.1730554288417665,0.046750619285943,-0.0322419602276814,0.2554661790680034,0.4134165396136187,-0.3476003067521531,-0.0955934151378573,-0.1974486985843966,0.0587216692989695,0.2561703678833662,1.7607840759051188,0.5304201011754286,0.421208531007098,0.0264155794227126,-0.1060674396894853,-0.2062703338707081,1,normal_operation,0.6190269485932745,strong_normal,2025-04-03 00:47:01.018787
1.7202338928222656,0.8102887158977028,3.1172505615234374,0.7852981445312499,1.5861585998535157,1.081580599975586,2.1511901916503904,1.0696095916748043,13.761871142578125,28.92617959300475,-0.4470925613485217,0.139772918253627,0.1550205604580048,-0.2959461848564151,1.1007342132568358,1.2730382181123143,2.9544448486328125,-0.7110778930664062,1.0007762939453124,-0.0442927307128905,2.185307565307617,2.2296002960205077,10.419565625,22.65793690406978,0.1579478635352467,-0.7352064884136891,-0.303361078006734,0.3859356910723851,10.151115763854978,1.1479588017553948,11.609483850097655,8.504204296874999,10.207678778076172,9.112930068969725,11.195286962890624,2.082356893920899,81.20892611083983,834.903685293702,0.4863587266245218,0.114739299417841,-0.1725768070257358,-0.4549011152128325,-0.1642741196724433,0.1254053693440301,0.0113246554518716,-0.352263400173512,-0.1312993876214054,-0.2758552836835312,-0.0742098010199115,0.2016454826636197,1.33684226828329,0.3416999444357508,-0.0647188724026062,-0.3411382241373812,0.1272541267517123,-0.0786912344037862,0.0227658882392771,0.0875597506776476,0.192918836403648,-0.1119142421126135,0.022582695283438,-0.0346734303688186,0.0645838438858206,0.0992572742546392,0.5740934157895848,0.0654799648484406,-0.6766323866270856,0.3895343057427823,-0.4286604252926589,0.2764276572814346,0.0709123278148077,0.2215231589760024,0.4134165396136187,-0.2594012254681648,-0.0092595712224126,-0.0639843033030745,0.2740566619352927,0.3380409652383673,1.4817978580672464,0.432808545590576,0.0896311458481956,-0.5237379657360118,-0.3833224852791372,0.1862603237752218,1,normal_operation,0.026022922348747368,weak_normal,2025-04-03 00:47:01.018787
1.024718310546875,2.9408764606035995,3.478775012207031,-6.296750366210937,1.9476830505371092,0.6985083343505859,2.864063735961914,2.165555401611328,20.791247216796876,77.59041578001917,-0.0839842915055426,-0.2000079201936106,0.1663887694968489,-0.0997016506147428,1.1752537399291991,1.5051577886769565,4.106055847167968,-0.3399766357421875,0.7709329345703124,-0.105943423461914,1.828571517944336,1.93451494140625,10.709264025878904,29.173770576259805,0.2160333338011595,-0.197319128680993,-0.3507119441360195,-0.3566682724306014,10.613196684265136,0.862171463011666,11.609483850097655,9.157821350097656,11.021707342529297,9.80605144958496,11.265317361450194,1.4592659118652325,84.9055734741211,907.0662679242251,0.2703027291305878,0.172972105275778,-0.3650554956916679,-0.2670387063713055,-0.15922798643433,0.2069106628604203,0.3137595716371485,-0.3787764170549526,-0.1623422666835947,-0.3310796329164815,-0.1041202145369136,0.2269594183795679,1.901343034748937,0.5453245925541577,-0.247623628952075,0.0619568870282261,-0.072822786503526,0.0540120656590303,-0.0325417305190545,0.1341591582464068,0.192918836403648,-0.2439464015573753,-0.018918836166656,-0.1299670752153029,0.0529927259527285,0.1829598011680314,0.8953139369009075,0.1524611517324736,-0.1518743057587483,-0.1873744386820055,0.1469783350808854,0.1173192131214393,0.0456983155293171,0.2167515259432394,0.4058223588988341,-0.2142358349012887,-0.0140558958843818,-0.131632465722931,0.2533058962102457,0.3849383619331767,1.5023154691212253,0.3925564803275184,-0.053259701395544,-0.5838101925553478,0.0227298015619559,0.0435612339758394,1,normal_operation,0.8841567354733226,strong_normal,2025-04-03 00:47:01.018787
0.4147954376220701,3.361809492673335,3.6631285400390623,-6.296750366210937,1.350329736328125,-0.5805939025878908,3.0980969482421874,3.678690850830078,23.185448876953124,91.79054656080508,0.2286859280332285,-0.6219398012383871,-0.3515371830770089,0.1162145405867381,0.4019266036987305,2.295065351291253,4.106055847167968,-2.674323254394531,-0.2992752075195312,-1.218648645019531,1.71724114074707,2.935889785766601,14.76025323486328,43.430959691667525,0.4704769119118281,-0.3491033275063423,-0.5543919170245091,-0.2303217813469574,9.651625442504884,1.4563294957513435,11.978190905761718,7.0461354858398435,9.747992059326172,8.941146099853515,10.31721350402832,1.3760674041748049,77.21300354003907,762.1981542608235,-0.0130983647319816,-0.5318941622281415,0.0259596285237011,0.0378583625833134,-0.1636246173744683,0.201806218601225,0.3137595716371485,-0.3787764170549526,-0.19658269552043,-0.3089965547853319,-0.121406968006094,0.1875895867792378,1.936516082270044,0.5399901222165326,-0.5620609103824236,0.1027833619371794,0.1319794425577138,-0.2509550610031924,-0.0751590736092596,0.1641889430197642,0.2334211335491653,-0.3209540586301023,-0.0594211333121733,-0.1990807812818722,0.0030310107238833,0.2021117920057555,1.1555145498127342,0.2608551628459958,-0.2744125761696866,-0.0180002884432678,-0.1498529585954998,0.0446200983742164,0.1264697551492837,0.2155799400699572,0.4058223588988341,-0.2142358349012887,0.1486194489007385,0.0276454824266277,0.2815509192196195,0.2539054367929917,1.830597245984892,0.4997544762246891,-0.0842013492899383,-0.2944921265042507,0.0647241023430913,0.0220843473549096,1,normal_operation,1.0489311644107264,strong_normal,2025-04-03 00:47:01.018787
1.1016320388793943,2.053943322773885,3.6631285400390623,-3.636792321777344,1.036689318847656,0.8457517364501952,2.33015676574707,1.484405029296875,16.08664095458984,43.45821057802399,-0.1654735138899283,-0.2972217648772892,0.0831536445437334,-0.1491515411108864,0.0604535919189453,1.8376487175437703,3.88818349609375,-2.674323254394531,-0.0047884033203124,-1.218648645019531,0.8026561065673827,2.021304751586914,10.879252343749998,27.04485956692933,0.0878579824876417,-0.3243647168471177,-0.2576993718912169,-0.08850244246845,9.810839852905271,1.7717042742907354,12.571952917480468,7.0461354858398435,9.605537060546874,8.522759359741212,11.085752236938474,2.562992877197262,78.48671882324217,795.1321172391554,0.0285363145178287,-0.4695953090953871,-0.4227876862213093,0.1990585342709302,-0.1828099160223449,0.1277675517235981,0.0642174579741425,-0.3110949468249434,-0.2420811641888318,-0.2709257277809517,-0.1047197551196597,0.166205972661292,1.5909142441270447,0.3979521013563131,-0.2622828772599276,0.1329626240205934,0.140520480475954,-0.2512002817742242,-0.0855344564717831,0.1562903962634673,0.2334211335491653,-0.3209540586301023,-0.0875329250809369,-0.1943177644300556,-0.0252806279057957,0.1690371365242599,1.1806952542880722,0.2539426496649202,0.2846068921565191,0.0267351884327371,-0.4682035254870123,-0.3461842831711397,0.1520334994413762,0.1308187544160368,0.361189893294399,-0.0758085759072346,0.1486194489007385,0.0874996172707843,0.2097392805306925,0.1222396632599082,1.3678851473454792,0.3218218516748345,0.3612569456055804,-0.2398034904918985,-0.5325376500187032,-0.1765706225750963,1,normal_operation,0.9530455576397503,strong_normal,2025-04-03 00:47:01.018787
1.0785878479003903,0.5092281762683328,2.1164742675781247,0.4572925170898437,0.90021982421875,0.7535749725341796,1.2713210815429683,0.5177461090087887,8.628702783203124,11.381320649151746,-0.2182574660683496,0.0771654914010345,-0.0497832298067994,-0.0861029444272514,0.1358709442138672,1.0868276302493864,1.6927005737304686,-1.7932570434570312,0.3232172241210937,-0.3214215728759764,0.8026561065673827,1.1240776794433591,7.149086157226561,9.59724169084052,-0.4603871405186583,-0.2562493042932575,0.2878313952624304,-0.0893672655229424,9.957185429382324,1.269570687634873,12.571952917480468,8.434772448730468,9.701305126953123,9.048885174560546,10.69310316467285,1.6442179901123044,79.65748343505858,806.0588112480427,0.1250940216928937,-0.2554003848776889,-0.0785450318065051,0.0438060792581755,-0.0493122129308702,0.1494989798673937,0.2283583464059756,-0.258468606783893,-0.0368384380287351,-0.1234054366152479,0.0015654670771705,0.1249709036924184,0.9796493122071986,0.1982531146042469,-0.0315381297598424,-0.0464450797963877,-0.0405918111872479,-0.3531513141598234,-0.0522599541293721,0.1109748207094054,0.1469540583931103,-0.208107197833217,-0.0601539051355297,-0.1185758041431261,0.0193851455087919,0.1379609496519181,0.8079142430605808,0.1203721090967101,0.4071486491635831,-0.0097915135066526,0.0376971704812499,-0.1281437758487784,-0.062951761188345,0.3027521790763178,0.3117611030279947,-0.5261301691698937,-0.0157879020123151,-0.2685275654499672,0.1961830017985992,0.4647105672485664,2.0821378282570517,0.7649744493773859,0.3289279410513754,-0.1669737331157834,0.0428189818409385,0.0110421432391697,1,normal_operation,0.7232392539220287,strong_normal,2025-04-03 00:47:01.018787
0.3268085266113281,1.4959186751849078,1.630451330566406,-3.239354846191406,0.7362170104980468,0.211288296508789,1.3275848205566405,1.1162965240478515,10.146626635742187,18.756611966662696,0.0087433439318111,-0.3625353416007864,-0.2694161071246745,0.069843008046518,1.1671733093261716,2.828433124080756,6.406883642578125,-2.5139117431640625,1.1623849060058593,-1.3587094421386716,2.7455507537841792,4.104260195922851,20.37944453125,74.89861977120505,0.1445953584411057,-0.4300501511772189,-0.0605270226480114,-0.0136244897242661,9.61481459197998,1.0781024129262788,10.98220301513672,7.460332373046875,9.865307940673826,9.348758932495116,10.162188946533202,0.8134300140380866,76.91851673583983,748.855715607269,-0.4592394083066305,0.0886818592435754,-0.3913607669093473,0.3375828486536346,0.0001665390507628,0.2837091522293771,0.4509877494657103,-0.614329250453882,-0.0003996937218307,-0.0468307810745042,0.0962595713409086,0.1430903524154128,1.498851456865359,0.6439272863517387,-0.4058325134368585,0.0096887532715974,-0.0016561494151456,-0.2766797170598059,0.1164274503882858,0.2518328123791629,0.7262434925664955,-0.1019218990668444,0.0343070444571404,-0.0446657734145876,0.1631749619374087,0.2078407353519963,1.3758790217820942,0.6158009327577235,0.0450961522150035,-0.4355380587954691,0.0627828384966296,-0.0813066022209253,-0.3648870602213335,0.3048998305843055,0.2575359880996213,-0.6738836150066655,-0.5124073513870375,-0.5604372136270341,-0.1679046709790727,0.3925325426479614,3.434168457969911,1.8088517872584424,-0.2343864935292514,-0.2157528443164884,0.3947884282755921,-0.3001686146742143,1,normal_operation,0.00013834310555371765,weak_normal,2025-04-03 00:47:01.018787
-0.829291600036621,5.88038335629973,6.490680700683593,-14.882357519531247,1.209071838378906,-1.2048819854736328,1.5412673187255856,2.7461493041992187,30.662540661621087,282.13306379950546,-0.399023950507205,-0.0069072325475621,-0.0429517845841756,-0.1683368001747502,1.2063783615112302,4.011574625193775,6.593631372070312,-4.721365673828124,1.456871710205078,-2.567182730102539,4.376002084350586,6.943184814453125,29.575573107910152,140.3846377969688,-0.2439250921057549,0.1887920000447474,-0.2910332832142078,-0.0886261633523213,10.888754331588746,3.425781122580654,19.61270144958496,7.460332373046875,9.968258612060549,9.571419686889648,10.242394702148438,0.6709750152587901,87.11003465270997,1042.407577548181,-0.1965302862883758,0.010780187452513,-0.0141366016236747,-0.2980237386455666,-0.0541751532131446,0.3608524737608677,0.4609800925114793,-0.614329250453882,-0.0495620215070145,-0.2908771060623373,0.1519169221058423,0.4427940281681796,2.3988284871876258,1.0651956403600435,-0.4964084644068106,0.0063303497023702,-0.0513069518274205,-0.1381324340267815,0.1952503831143274,0.237745521285018,0.7262434925664955,-0.1019218990668444,0.1549479328297255,0.0371382083201083,0.244579249950274,0.2074410416301657,1.7658468630483084,0.7571651599790127,-0.0092541346350576,-0.4329842654067728,-0.2248038671578071,0.2252195898017439,-0.4649603758247107,0.2505972896107389,-0.0968591119236547,-0.840289434528873,-0.5156715167819887,-0.6659896640005081,-0.2308564321674178,0.4351332318330902,3.719683006597686,2.2318972211784383,-0.17217556759855,-0.2959201000393003,-0.2876264825596461,0.3639404567596629,1,normal_operation,2.225932610455672e-05,weak_normal,2025-04-03 00:47:01.018787
-0.2753331909179686,5.8090146369698035,6.490680700683593,-14.882357519531247,1.090558856201172,0.6649895111083984,1.2623428253173827,0.5973533142089843,27.562049511718744,270.56367534840393,-0.3778288439824511,-0.0963845393220864,-0.0279005630678645,-0.0310166571058206,0.1843535278320312,3.1311464599799006,6.593631372070312,-4.721365673828124,0.0885854614257812,-1.301248602294922,1.408987677001953,2.7102362792968746,18.64125412597656,78.70451501655022,-0.6263575245143359,0.1778760356973458,-0.1146062833584622,0.1004279091794741,10.765752221298218,3.4219956144829213,19.61270144958496,8.573636145019531,9.561244329833984,9.08419964904785,10.219649786376952,1.1354501373291033,86.12601777038574,1020.8917990074228,-0.1737591229281916,-0.1299834236334664,-0.1418724440334256,0.0925261421845678,-0.1656897016039273,0.2850994296845984,0.4609800925114793,-0.5494456362766882,-0.2019785607651452,-0.2930754215324065,-0.0953269526566368,0.1977484688757697,2.247477797854377,0.8698780961926537,-0.331330238997638,0.1289921727565406,-0.0355454032092457,-0.3515454442687206,0.090314127228676,0.128109379730616,0.342803982090184,-0.081271056772255,0.0769410414524217,0.0162209035442984,0.1327649312681182,0.1165440277238197,0.981514549575742,0.1965492380163251,0.2956816819076661,-0.0471445773047886,-0.0193933256577557,-0.0928471320371331,-0.235119831866946,0.2918410995417476,0.1729341503121099,-0.840289434528873,-0.1743996939588226,-0.3175233541843882,-0.0556906585750862,0.261832695609302,2.2268269555597877,1.1236205017510177,0.253502539095596,0.12140154656355,-0.0289560735113768,-0.2384333277188459,1,normal_operation,0.49022345115464194,weak_normal,2025-04-03 00:47:01.018787
0.7915829238891601,0.6432954522891878,2.094926452636719,-0.1604115112304687,0.74699091796875,0.4944026428222655,1.074397994995117,0.5799953521728515,6.6534864135742176,8.323460514630902,0.1390977002202623,-0.27545613484896,-0.1135630007278592,-0.1036231935813335,0.7344213592529296,1.3596129001577175,3.35188232421875,-0.9145850341796874,0.7972691528320313,-0.4381389038085936,1.408987677001953,1.8471265808105464,9.974244116210937,19.103375769617607,-0.3125633145372212,-0.0702182080350714,-0.0445370710431018,0.212701475166941,9.680056587219235,1.1653205914959526,11.623849060058593,8.568847741699217,9.156624249267578,8.596979611206054,10.810419046020506,2.213439434814452,77.4404526977539,760.4917409018483,-0.7003042804884466,0.6093884373909049,-0.5300067502097875,0.2260356010331519,-0.2173334612454771,0.1447351827420911,-0.0283782542499841,-0.5494456362766882,-0.2063085760849785,-0.2443127874690535,-0.1461879787596013,0.0981248087094522,1.7386676899638167,0.5454568520026065,0.0090076640880152,-0.3540241228436013,-0.2899864468677656,-0.0635146809843752,-0.0675315850843225,0.1150464383213098,0.1067182237288135,-0.2472771825726317,-0.0647503829365835,-0.1685042115618189,0.0246144717027444,0.1931186832645633,0.8925160808480924,0.1423695836353604,0.3575251813589893,0.1259213009831142,0.022747784012958,-0.2071114743202493,-0.0927789051799657,0.2548993585705289,0.3396064323155378,-0.5033476270255403,-0.0700130169406885,-0.2364188364628959,0.0095593415137857,0.2459781779766817,1.7673124066950212,0.5886528659684811,-0.1535709623999168,-0.0188723435292333,-0.2717406107192687,-0.0398109553137197,1,normal_operation,0.4726297316799184,weak_normal,2025-04-03 00:47:01.018787
0.3971382003784179,2.4150987641962622,5.518634826660156,-3.0310593017578125,-0.0323217224121094,-0.7499836700439453,1.1360486877441407,1.886032357788086,13.874398620605469,47.92336632817696,0.1077710681323834,-0.4177615844836175,-0.1671308134673263,0.233729970908334,-0.0278325942993162,2.1669624602823134,3.35188232421875,-2.636016027832031,-0.3076549133300781,-2.041056915283203,1.647809292602539,3.6888662078857424,15.52639776611328,37.57200766062567,-0.2498897792865798,-0.2141132572536621,0.0145125528825293,0.1936525934667548,9.925761532592771,1.1412093186490573,11.635820068359374,8.568847741699217,9.312247357177732,9.123105426025392,10.963049401855468,1.8399439758300744,79.40609226074218,798.584805686959,-0.5455400820365938,0.367128405617617,-0.4076270966137558,0.3471102195830945,-0.2103055133032861,0.1408116815769814,-0.0066615620305127,-0.4921562028142789,-0.2063085760849785,-0.2663625577900506,-0.1073177643115597,0.1590447934784909,1.6824441064262894,0.512450708754367,-0.3007535433215372,-0.3636859115816839,0.1068024578100339,0.1702035350854183,-0.1921694106752153,0.1312827062520657,0.0145222052265177,-0.4328683007427157,-0.2093062789987093,-0.2493755746122432,-0.1329647781290336,0.1164107964832095,1.566399695854758,0.4333138508810059,-0.2436464586568918,0.0201763790904662,-0.0571283773818541,-0.0608235492506854,0.0219165390803867,0.3836453491104256,0.5334578874034577,-0.5033476270255403,0.0550911179923401,-0.3765114859645783,0.3668855288304873,0.7433970147950656,2.850082699134557,1.1813127086345796,-0.1744211254478342,-0.1811990547746431,-0.2431056978814288,-0.0848991336811095,1,normal_operation,0.20537694896437708,weak_normal,2025-04-03 00:47:01.018787
1.0064625228881836,2.6467068076351428,5.518634826660156,-3.0310593017578125,0.7661445312499999,-0.7499836700439453,2.972999911499023,3.7229835815429686,18.428170178222658,64.14418988448524,0.1826244725786411,-0.5258305075206213,-0.4857975973023787,0.1030187559686773,-1.11719434967041,1.5690968877337923,2.7054478759765623,-2.636016027832031,-1.4484920043945309,-2.041056915283203,-0.9409212524414062,1.1001356628417969,14.348450549316404,29.681506064250907,-0.3191035801194684,-0.1955646039209292,0.0890752192617955,-0.1456965624323932,10.306738871765136,1.142997136818685,11.635820068359374,8.93755479736328,10.24478890380859,9.26316622314453,11.438298431396484,2.175132208251954,82.45391097412109,860.2824690042414,0.1008861374032545,-0.3377628120341769,-0.5623939724632967,-0.0020764857840746,-0.1041368684419899,0.1883120600869003,0.1192419603461774,-0.4921562028142789,-0.0163208269747561,-0.1636412712795446,-0.0002664624812204,0.1633748087983242,1.0790398177024485,0.3704473547446135,-0.2967568848994036,-0.0248153347306405,0.2981735665939412,-0.2914696244071465,-0.1664724351425125,0.1382277973795626,-0.0042633996995281,-0.4328683007427157,-0.1714019910450919,-0.2485761871685817,-0.0276121746164751,0.2209640125521065,1.3317794811401005,0.3745599650454677,0.1093035858241115,0.1183884241376853,0.0134522983643114,-0.1072128731348049,0.3159911949173702,0.2892201047202423,0.6099326195137436,-0.376378254723968,0.4200114860238262,0.2586684536448084,0.4699065856323664,0.211238131987558,3.280686068786898,1.467989633917563,-0.1969762876265123,0.0951100913816167,-0.2229058729307364,-0.2955278052402461,1,normal_operation,0.06674947612275872,weak_normal,2025-04-03 00:47:01.018787
2.3873183303833008,1.8530546408237971,6.244077929687499,0.1077390747070312,2.1823148132324217,1.170764611816406,3.2423475982666012,2.071582986450195,19.09854664306641,73.06480249970178,-0.1048332482447729,-0.626029119250324,-0.0072770836000909,0.2891788478768085,-1.1701660614013671,0.3497127803642154,-0.6919242797851562,-1.7118541870117183,-1.1133037719726562,-1.369483349609375,-0.9409212524414062,0.4285620971679688,9.361328491210935,11.932701120045264,-0.0888636716495736,-0.5337752331068909,0.3638770736480093,0.0008890724645323,10.543166285705563,1.2804793589473844,11.626243261718749,8.058882788085937,11.28626662597656,9.826402163696288,11.499350573730467,1.672948410034179,84.34533028564452,902.3838617338304,0.4346776209409688,-0.4280771194559993,-0.6043901389080155,-0.1947929937845335,-0.1668221671491144,0.2324133304877959,0.1192419603461774,-0.6554977038024505,-0.1187090353837364,-0.2520068916142957,-0.0002664624812204,0.2517404291330752,1.5805222073594447,0.6547647331260522,0.3370004883043784,0.1532315660283409,-0.0674649923371899,-0.3030880553740246,-0.0330246937662667,0.1439530021175801,0.2475436450538522,-0.200779479599653,-0.0331079632916481,-0.1595777184409318,0.0223828484225227,0.1819605668634546,0.9639280258151888,0.1745047777361577,-0.2415859134121941,0.2449973134669753,-0.0287905512067114,-0.0078127083953603,0.1825934152563533,0.3288436087116079,0.6099326195137436,-0.5145390512368017,0.2642641657504391,0.0141225115046869,0.4189123282887916,0.4047898167841047,2.555908119867116,1.1318277942836177,0.3513329004636337,-0.0205854061697988,-0.2183470495371461,-0.3309983060014658,-1,potential_anomaly,-0.0002118181568933064,borderline,2025-04-03 00:47:01.018787
2.038662713623047,1.8800254154633504,6.244077929687499,-0.0742202514648437,1.6412252380371095,0.6895300781249999,2.6431986328125,1.9536685546875003,16.457742211914063,61.52512978164023,-0.0437532486435773,0.0088255661863742,-0.1812512518174159,0.1364825613218219,-0.7248445526123046,1.428732067295082,1.97282216796875,-2.868253588867187,-1.1252747802734375,-1.369483349609375,-0.2729389892578124,1.0965443603515626,11.712434521484374,20.533399564552088,0.0398195054607054,-0.2839650669997596,0.0535004037589156,0.048499422662485,10.38664535217285,1.1807163634879183,11.633425866699218,8.058882788085937,10.460267053222656,9.903615167236328,11.520299838256834,1.616684671020506,83.0931628173828,874.211942422576,-0.0669960269887224,-0.3238367184879943,-0.0303156372429973,0.2260344027826501,-0.2619159651346833,0.1884657672001165,-0.0354395100023276,-0.6554977038024505,-0.2169670753337988,-0.3572595716963965,-0.1229724350832645,0.2342871366131319,2.095327721077467,0.8329545455900895,0.0055934801255545,0.04529105247372,0.1056694103003563,-0.3505854655665884,0.0238150842590829,0.1282669151857617,0.2475436450538522,-0.200779479599653,0.0071278713726486,-0.0468973966948094,0.1071845330709494,0.1540819297657589,0.8638713641168877,0.1361564781563089,-0.571366277962244,0.2174063071250218,0.0414338031983167,-0.3451893318232271,-0.0248143185636598,0.2568515253374239,0.4048897402145624,-0.5145390512368017,-0.0476967841384709,-0.1282683768975221,0.0842021440656806,0.2124705209632028,1.5625359898770608,0.5327076517915208,-0.3897717788581586,-0.0693104022810031,0.0854515137917979,-0.4261162597737645,1,normal_operation,0.9037456819407086,strong_normal,2025-04-03 00:47:01.018787
2.1377228073120116,2.006641471553159,6.545747338867187,-0.0742202514648437,1.7573440185546874,0.6542156036376952,2.7431565521240233,2.088940948486328,17.25022296142578,68.7717503700718,0.1822642853420258,-0.0514940761609535,-0.1118111649335581,-0.2447482964807389,0.1505354293823243,1.619092232138046,2.379836450195312,-2.868253588867187,0.3770867614746093,-0.909198080444336,1.2312182037353516,2.140416284179687,10.977414611816403,21.152964573352648,-0.0970885445667116,-0.1933261425741041,-0.0781900297325634,-0.0438960950039843,9.88206735229492,1.3244074597478868,11.633425866699218,7.632714892578124,9.957484704589842,9.05247647705078,10.85351467590332,1.80103819885254,79.05653881835937,795.274482197832,0.1916014570249532,-0.2675404268460564,-0.6461842147187788,-0.0398292158258038,-0.1484029481347468,0.1091767918526621,-0.0354395100023276,-0.4074211337861572,-0.1145788669248185,-0.1543483922469794,-0.0857009955225459,0.0686473967244334,1.1872235850779744,0.2715440551545909,-0.2884323315853989,-0.1048637460130009,0.030931566104411,-0.0068962862206184,0.0404689893353647,0.10677051686139,0.2161010722698322,-0.097525268126706,0.0079938744366152,-0.0430003829069594,0.1305333079878965,0.1735336908948559,0.7767381327577814,0.1043014589493939,-0.8073813540691566,0.5809984673518895,-0.4682928373881663,0.3385504257188257,0.0124071592818299,0.2235693703573418,0.4048897402145624,-0.1728009190714996,-0.0917963247804651,-0.1509176878012653,0.0785398163397448,0.2294575041410102,1.463545178103642,0.4010976077073839,-0.2503672843336119,-0.3796176053504529,-0.1651206753312392,0.4748110406609975,1,normal_operation,0.5063806253655185,strong_normal,2025-04-03 00:47:01.018787
2.1440075866699217,2.0615977524952203,6.545747338867187,-0.507570751953125,2.0183119995117185,0.6973112335205078,2.6713305023193357,1.974019268798828,18.167202197265624,70.77563059833221,0.0852337422462709,-0.4419163634070854,0.0701344328115796,-0.0258885283753524,0.3244143249511718,1.6431119231166846,2.379836450195312,-2.5857377929687497,0.3770867614746093,-0.8864531646728516,1.9692308654785156,2.8556840301513673,11.621454858398437,22.440491568973876,-0.1555816456250514,-0.5282754722088786,0.2035597131581531,0.0534996669258717,9.932046311950682,1.2820720401841796,11.5304751953125,7.632714892578124,9.95987890625,9.33439372253418,11.05642326660156,1.7220295440673823,79.45637049560546,802.3140212716414,0.3858707095069043,-0.1722311149864381,-0.2512336871313036,0.0010307051564249,-0.1932019527899448,0.1534744731334748,-0.0126569678579741,-0.5154716699210734,-0.1382274121331386,-0.2468774888508009,-0.0953935682769419,0.151483920573859,1.5456156223195583,0.4870512677235659,-0.4032793310567996,0.4128398146407525,-0.5522026158805863,0.021595386189336,-0.0217333461245477,0.1779526724222178,0.2161010722698322,-0.3966294032967267,-0.0429004594765017,-0.0763415008696755,0.1160444105715313,0.1923859114412069,1.124604901991155,0.2571159356478285,-0.3291563115398446,0.142988940328238,0.0402731841967354,0.1168024191660745,0.1258702145665376,0.2441658483463016,0.4640444110455152,-0.1728009190714996,0.1018552834465393,-0.0968591119236547,0.370416156706659,0.4672752686303138,1.859908118919148,0.6036821793095629,-0.3921069465105827,-0.1226518992956262,0.3506771092201545,-0.0800696038729136,1,normal_operation,0.8553039982484467,strong_normal,2025-04-03 00:47:01.018787
2.306214749145508,2.1513922803574084,7.335833886718749,-0.507570751953125,2.305616198730468,1.025316860961914,2.449866848754883,1.424549987792969,19.46485949707031,79.57692170526181,-0.5623861148271385,0.1436318968040205,0.0890337649291604,-0.202040975557197,0.0080804306030273,1.6633494995272429,2.023100402832031,-2.5857377929687497,-0.0023942016601562,-1.28329208984375,1.6711527587890624,2.9544448486328125,12.169727038574218,22.13437480749008,-0.0244443137500042,-0.3863165904853145,0.2073080950697435,-0.2607256369692174,9.217975666809082,1.845789516934978,11.307814440917968,5.195417602539062,9.653421093749998,8.730456353759765,10.38006129760742,1.649604943847656,73.74380533447265,707.024114677691,-0.2459513438440125,0.2076374750236304,-0.0239109967794432,-0.3169607309234824,-0.1366286372458156,0.187738253865022,0.0732771823356397,-0.5154716699210734,-0.0720114855498423,-0.1979150079265325,-0.0065949464102075,0.191320061516325,1.2395834626378044,0.4313042918394891,0.124309106281075,0.2429224431313844,-0.1702445126995139,-0.2326860293386279,-0.0441495023572229,0.1610240641746973,0.1353629404600182,-0.3966294032967267,-0.0577557428045451,-0.0856010720920882,0.1040202911064558,0.1896213631985441,1.0462649325123257,0.2230234224138198,-0.5769584099356604,0.1243689670970728,0.1833065524027414,-0.3464033784005017,0.193335184030555,0.1773900727241439,0.4640444110455152,-0.0772741195539474,0.2330214398273345,0.0572894334624092,0.2982381321060539,0.2409486986436446,1.7785038309062824,0.5507658502816453,-0.8050217921993983,0.5674661554129459,-0.3666577751666762,0.2043488722716397,1,normal_operation,0.5082103601350441,strong_normal,2025-04-03 00:47:01.018787
2.475005966186523,1.9625177505112748,7.335833886718749,0.4165910888671875,2.1164742675781247,1.534084713745117,2.4211364288330075,0.8870517150878905,19.800047729492185,79.81704362984576,-0.175818376795638,0.1087957948088945,-0.0035764974730771,0.0135992272679029,0.4297591979980468,2.305486602397123,5.003881469726562,-1.927332336425781,-0.0023942016601562,-1.7872715393066405,1.7782932830810547,3.565564822387695,15.614983227539062,43.999691536772445,-0.0387825793550332,-0.6505708051557012,0.1274832444024212,0.1929492089503025,8.811859210205078,1.636875508557721,11.109095703125,5.195417602539062,9.157821350097656,8.505999948120117,9.63366893005371,1.127668981933594,70.49487368164063,642.6257933679371,-0.1607228814814855,0.2934856615344462,-0.0349808471025428,-0.0071902255506388,-0.1629751150764933,0.2082124336077928,0.0732771823356397,-0.6039372136862822,-0.0899977030322266,-0.2863805516917412,-0.0065949464102075,0.2797856052815337,1.4503552852832264,0.5593064451446066,0.2397519915489918,0.0359818929270277,0.0197767158145092,-0.1935415069659272,0.0887486601515055,0.1432165259057266,0.3707825426183373,-0.1101822359846801,0.1172434917370236,-0.0214502297382508,0.1414582697179373,0.1629084994561882,1.0907641668761503,0.2270983837695446,0.0481621542582799,-0.3643042274677395,-0.1110049282033759,0.1279871876502269,-0.0555574273344759,0.2654764443374973,0.2748560493789543,-0.600739663911636,-0.0195849923697073,-0.2010126342707209,0.1273357582132503,0.3283483924839713,1.6557978583042383,0.5885149618408474,0.3530772385807051,-0.1952073895383673,-0.3114770840894396,-0.2960808167636372,1,normal_operation,1.0848881463888858,strong_normal,2025-04-03 00:47:01.018787
2.060509803771972,0.7707980979036758,3.239354846191406,0.4165910888671875,2.1164742675781247,1.8231845642089843,2.5067291381835934,0.6835445739746091,16.484078430175778,38.7186428733787,-0.1146981663401651,0.201153508993428,-0.0051968958860805,-0.262051751312099,0.8289923248291016,2.2589282354674944,5.003881469726562,-1.927332336425781,0.6500257507324219,-1.1264718811035157,2.4313117858886715,3.557783666992187,15.907075830078124,46.31988038094278,0.1277640824168228,-0.3067849415536531,-0.0866442404277787,-0.3289169260853511,9.735422500610351,0.8897235991836272,11.109095703125,8.48505068359375,9.542090716552735,9.126098178100584,10.57758293457031,1.4514847564697266,77.88338000488281,764.5604747866765,-0.1948117284998257,-0.3648580609393191,-0.1771697611531639,0.3128735164002131,-0.2559705210224507,0.1896504095031978,-0.0274456355657123,-0.6039372136862822,-0.2502082698660572,-0.3414050540637762,-0.0886986984362767,0.2527063556274995,2.047764168179606,0.8119054836578844,-0.1434094834886631,-0.1161588512512531,0.1450159983694106,-0.3630732729760684,0.1033374809983283,0.1360529733884924,0.3707825426183373,-0.1060520675257623,0.1251707505533337,-0.0050960949533421,0.161476263619628,0.1665723585729702,1.0683813184536275,0.2335123723754376,-0.0913694392929587,-0.1403414412725316,-0.0316689324862626,0.1734126567975403,-0.1294008424427093,0.2955306007624463,0.4247411950654903,-0.600739663911636,-0.1273024504030978,-0.2719249620855287,0.0138560490234664,0.2857810111089952,1.9987350716350327,0.8326633120951626,0.1507450316141571,-0.247056259690773,0.2508197442070985,-0.1278457489020483,1,normal_operation,0.7269262857209844,strong_normal,2025-04-03 00:47:01.018787
1.534084713745117,1.5397047168082518,3.239354846191406,-2.0470424194335934,1.8650830932617184,1.4652514160156247,2.5067291381835934,1.0414777221679687,16.366762548828124,37.79285219126414,0.2541031974765109,-0.0546337514717355,-0.2277633041049013,-0.0747943952619142,-0.024839842224121,2.144971847269645,2.5857377929687497,-5.118803149414062,0.4405331054687499,-0.1849520782470702,1.0869675537109371,1.2719196319580075,11.834538806152343,36.81216994672858,-0.2177295190913613,0.0050955710295013,-0.3211257874412406,-0.067477110886432,9.330503144836426,1.2149868338983023,10.627861169433594,7.256825231933593,9.546879119873047,8.368333352661132,10.57099888000488,2.2026655273437488,74.6440251586914,708.2758555387892,0.2405213055556757,-0.4108188227333769,-0.277796403669115,0.1336202720024958,-0.1047031012145834,0.3955612055372772,0.8785268005840159,-0.4651102609703972,-0.2114379788484733,-0.3206875961488817,-0.0834027566220191,0.2372848395268626,2.5946784108846996,1.3394512538404428,-0.367978408519763,-0.0445794350339376,-0.0444511326826835,0.1164276620453367,-0.0273956738504835,0.1478497178562674,0.1666722820034279,-0.3236186834423074,-0.0078606431960049,-0.1122473202141391,0.080504977138746,0.1927522973528851,0.9332848404748302,0.1808804961271996,-0.0342972712513535,-0.2696529299863778,-0.0275493830228312,0.2313873955780822,0.0825367535580524,0.4173669145303071,0.9661929569055632,-0.4477901996910642,0.0108583461097357,-0.1287013784295054,0.1773307812522482,0.3060321596817537,2.425341504069067,1.4480596562596109,-0.2813919592697783,-0.2363143745591053,0.0055080792154745,0.3043040559665809,1,normal_operation,1.1022941193741693,strong_normal,2025-04-03 00:47:01.018787
2.794033337402343,4.289308829639058,13.194445349121091,-2.0470424194335934,1.7609353210449217,0.6733692169189452,2.5378537597656248,1.8644845428466796,26.446351538085935,209.63834021228217,0.10375039325178,-0.1831045326517567,-0.3612562932942072,-0.0956990425726062,-1.4212579605102538,1.943298041411239,1.2737152832031249,-5.118803149414062,-1.6412252380371095,-2.434304537963867,0.1909375823974609,2.6252421203613276,15.234305163574218,46.371051744532195,-0.5438538709260532,0.1533437801882369,-0.0338177596549171,0.01324298534799,7.793425679016114,1.8054159572383357,10.601524951171877,4.410119458007812,7.912836486816406,7.024587670898438,8.526350662231446,1.501762991333008,62.34740543212891,511.9760847439886,0.3491032853960225,-0.0784596134505259,-0.0374848296764954,-0.4204927628279584,0.016670558981358,0.3803442187198044,0.8785268005840159,-0.4066217463424957,-0.0804716693285935,-0.2261933387460589,0.0967924963033496,0.3229858350494086,2.261067384396623,1.1595170580026348,-0.463119507049118,-0.1666152756047331,0.0332812072779993,0.2465695309818502,-0.0334410413931737,0.1923735936156941,0.3787764170549526,-0.3236186834423074,-0.0661493109629911,-0.1322986219259823,0.02494754980427,0.1572461717302524,1.1793629418819698,0.3050072221606096,-0.044852997958145,-0.1155098353901372,-0.4577920723076606,-0.0618004056849615,0.1445059343468969,0.3652865698192928,0.9661929569055632,-0.3417381321653019,0.0382373660551429,-0.0219165390803867,0.1743996939588226,0.1963162330392093,1.9450428816691003,1.234529945214518,-0.3663474171353499,-0.2182263529436695,-0.1067731098497842,0.2836650012321454,1,normal_operation,0.5079888753923378,strong_normal,2025-04-03 00:47:01.018787
3.4766800857543942,3.945819836150541,13.194445349121091,-0.21068974609375,2.0973206542968748,1.3652934967041015,3.965396499633789,2.600103002929687,28.234820178222655,221.25438878432212,-0.0318119918368468,-0.1144890827862522,-0.0348154220940808,0.1213200301376055,-0.6631938598632812,1.697537940976579,2.4756045166015626,-2.482787121582031,-1.0486603271484376,-2.3032219970703123,0.7248445526123046,3.0280665496826167,13.220781567382812,26.57168925452288,0.5805824928885441,0.1020978794931471,-0.2453146446261263,-0.344473205227666,7.301716513061523,1.2400663146370974,8.219294299316406,4.410119458007812,7.947552410888671,7.1035963256835934,8.09479581298828,0.9911994873046872,58.41373210449218,438.8226280145037,0.2613816178942534,-0.1265545049103241,-0.1342618543558286,0.0130418940223653,-0.0128235069087369,0.1992469055157779,0.2844486987028926,-0.3356094950972302,-0.0167205206965869,-0.1259368301868427,0.104919601980575,0.2308564321674178,1.3384410431706129,0.318910173496414,-0.5294515976685223,0.3132147031474108,-0.3694732203550872,0.2058618788892017,0.0785398163397448,0.2404942451134301,0.5028147020630992,-0.1819938746736072,-0.01052526800821,-0.1305999236082015,0.2559705210224507,0.3865704446306524,1.5875834631117884,0.5120478774668756,-0.199316073683084,-0.5350849760058496,0.0051914659929097,0.4263144992647728,-0.1349799006432637,0.4594822753581382,0.4130168458917879,-1.2594349174887327,0.0059287902071563,-0.1103820828455955,0.0352729709515647,0.1456550537971603,2.121441044237077,1.8347482795676584,0.093080957607464,-0.1710011930100474,-0.3527099614914266,-0.0562565213230146,-1,potential_anomaly,-5.6182113103098175e-05,borderline,2025-04-03 00:47:01.018787
2.048838070678711,1.3510139427711307,4.120421057128906,-0.21068974609375,2.005143890380859,1.3545195892333983,2.777872476196289,1.4233528869628906,16.812084057617184,48.183808907395665,-0.3426509584970248,-0.067839733291198,0.1285520772097249,-0.4810432224107625,0.9873089096069336,2.530706528895766,4.53940634765625,-3.181894006347656,0.7410054138183593,-0.8230068206787109,2.956839050292969,3.77984587097168,17.896657409667966,59.03403534707912,-0.4978705491369353,0.1827366043112365,-0.151388068347054,0.0847091014193437,9.194931475830078,1.8487748653570817,13.043610644531247,7.362170104980469,8.164227661132813,7.988852389526366,10.4578728515625,2.4690204620361325,73.55945180664062,703.7178667838942,0.2590581631797412,0.1522846002264057,-0.1202825353234664,-0.2977298645759088,-0.141441615812861,0.2734520901432832,0.2390168456547959,-0.5465145489832626,-0.125836906756385,-0.3661194491969784,0.0853346096108677,0.4514540588078461,2.051361411676083,0.7582542102998664,-0.6984030199251999,0.554806358158774,-0.4241502385222723,0.4055846280311386,0.0082270291076832,0.2570303843630797,0.5028147020630992,-0.4391301690513977,-0.0217833078397765,-0.0697798622696205,0.0875329250809369,0.1573127873505575,1.459947934607165,0.5290584199501692,0.0210491317154529,-0.0656163341257578,0.1794001681631435,-0.3918651709091867,-0.219398545474936,0.4613444752850382,0.3432036758120147,-1.2594349174887327,-0.0324418070885968,-0.3376079637063841,0.0193185298884868,0.3569264935948709,2.5348575838506955,2.087795573060359,-0.0275465675304739,-0.2159049494435805,0.2392950648541569,-0.0164013892522035,1,normal_operation,0.3469086651793667,weak_normal,2025-04-03 00:47:01.018787
1.633144807434082,1.0903705610178178,4.120421057128906,0.5003881469726562,1.4484920043945313,0.814028564453125,2.002151138305664,1.1881225738525387,13.065158459472656,30.84855937906573,-0.216350569237912,-0.1810653841439652,0.2329085773545893,-0.2145879235515702,0.8801683853149413,2.9345160779512502,4.53940634765625,-3.3303345092773435,0.987608184814453,-1.3485340850830076,3.632003918457031,4.980538003540039,21.54063233642578,75.08864798609841,-0.3979954865650609,-0.0098932522073212,0.0189567681518066,-0.3533510935335958,10.5605242477417,1.9458024064068036,13.88636962890625,7.692569934082031,10.46984385986328,9.438541494750975,11.24975505065918,1.8112135559082032,84.4841939819336,922.486555135351,-0.4611466149792474,0.0522065554920807,0.1853149364131046,-0.4839122351271498,-0.2332712484034787,0.2188597018459768,0.1606768761759665,-0.5465145489832626,-0.2367519145644216,-0.389501531924078,-0.122939127273112,0.266562404650966,2.187523739579763,0.8185203553906187,-0.7046142675096861,0.2570231220250523,0.0921255909348973,-0.268758782825455,-0.0391366769292621,0.1574034743938277,0.1035206739541674,-0.4391301690513977,-0.0048629402822743,-0.0276787902367802,0.0460647014409953,0.0737434916777756,0.7274425737319874,0.2104602658585106,-0.1511961683119926,0.049362228648843,0.0167392310876702,-0.1620163345230068,-0.0164374043102901,0.2603874561735592,0.3432036758120147,-0.5558407358259804,0.0046630934213589,-0.1183426494720582,0.1600107199729152,0.2783533694449734,1.5738606453289323,0.5445745247439772,0.0733125136354062,-0.2911268929517118,0.032016788413948,-0.3618909265753774,1,normal_operation,0.4098187964370772,weak_normal,2025-04-03 00:47:01.018787
1.032200190734863,1.0432068800008578,2.5450363647460934,-1.2713210815429687,1.1767501159667968,0.7697358337402344,1.5765817932128905,0.8068459594726561,10.800243688964844,17.229742625873698,-0.559367013542571,0.0091073133801023,0.1078663239085128,-0.0303148054585076,-0.1699883178710937,1.876528005851504,3.375824340820312,-3.3303345092773435,-0.384269366455078,-1.1438298431396483,0.949899508666992,2.0937293518066404,12.061987963867184,28.40202707966133,-0.414309352828329,-0.006213460109407,0.0894153454721261,-0.0629279689538613,10.704774897766113,1.690224742362494,13.88636962890625,8.528146313476562,10.144232434082031,9.52413420410156,11.774085214233398,2.249951010131838,85.6381991821289,939.5925223323028,-0.2951539131342328,-0.1046149094535215,-0.0151963214330153,-0.2380051612036722,-0.2161010722698322,0.0857171430464598,-0.0928621747053471,-0.3667856054000297,-0.200779479599653,-0.2591014551767918,-0.1551810875007934,0.1039203676759983,1.728808578158658,0.4323768163857482,-0.3480276691634869,0.3522077591069913,-0.1277077572950752,-0.1219978063738372,0.0392199464546435,0.1024396619523475,0.2026447169681965,-0.1421577337311412,0.0293108729342558,-0.0193851455087919,0.1131466310882582,0.1325317765970502,0.6998637069256647,0.0962567083265307,0.1812940443102414,-0.3617800598019295,-0.3171129119080361,-0.113257836082305,0.0047796707568928,0.1863991768409076,0.2936416543050001,-0.2508744260691086,-0.0321087289870713,-0.127435681643708,0.1600107199729152,0.2874464016166233,1.3284487001248442,0.278139987036098,0.2800532004549217,-0.1149716982221774,-0.3927540434865847,-0.3698893330308141,1,normal_operation,0.7443843078696748,strong_normal,2025-04-03 00:47:01.018787
1.8632874420166017,1.7271463408784369,4.972756848144531,-1.2713210815429687,1.74297880859375,1.0803834991455077,2.7263971405029293,1.6460136413574216,17.44894169921875,51.63899659509235,0.2385137059981929,-0.3474489427652388,-0.3978485246489144,-0.1527613224024671,-0.5593453628540038,0.523126128690231,0.1795651245117187,-1.630451330566406,-0.4489128112792968,-0.7948749511718749,-0.2286462585449218,0.5662286926269531,4.833893151855468,4.692225451717643,0.2661447776625364,-0.2944388551110599,-0.4077983228508787,-0.2952666455675694,10.167276625061035,1.4163017937953195,12.490550061035156,8.224082702636718,10.026916552734374,9.112930068969725,11.294646331787108,2.1817162628173836,81.33821300048828,843.0353979329627,0.2868915767171281,-0.5006453724312973,-0.511659987195025,-0.0724317615350928,-0.1877061641147718,0.0526814772177121,-0.0928621747053471,-0.2394165393766267,-0.2061753448443682,-0.2330880554476396,-0.1569464014388794,0.0761416540087602,1.5016493129181745,0.3040715367081757,-0.3241357897613916,-0.0400216708381072,0.0980139104095478,-0.3916457095288229,0.048113131765378,0.1006445281644787,0.2026447169681965,-0.1421577337311412,0.0419012251719249,-0.00922626341226,0.1253372896040965,0.1345635530163565,0.711588056099367,0.0995535559817854,0.0438213243264652,-0.5930476621377408,-0.0603944418929765,0.1778371118374966,0.04917898169026,0.2056648120149997,0.3040336910726,-0.2508744260691086,0.0971921900251803,-0.1317323891533887,0.2027113325885017,0.3344437217418905,1.535490048033179,0.3577326971300489,-0.0198892498619286,0.004311898607265,-0.2158701443837299,0.3586045399786767,1,normal_operation,0.18077451494959407,weak_normal,2025-04-03 00:47:01.018787
1.4502876556396485,1.926057764725155,4.972756848144531,-1.4413093994140624,1.428141290283203,0.3411737365722656,2.2936451904296877,1.9524714538574224,15.921441040039063,46.50426237727047,0.297911919824551,0.1715144131292764,-0.1914991355125903,-0.3678047466602335,-0.3187280960083007,1.836736750172151,2.3391350219726563,-4.580107775878906,-0.0790086547851562,-0.4686649749755859,0.3303998291015624,0.7990648040771483,9.157821350097656,27.801515908944257,-0.3718827396050369,-0.0746079971811367,-0.1034969949355453,0.0064431027598794,9.238924931335449,1.0171077840723028,11.214440576171874,8.224082702636718,8.760383874511717,8.479065179443358,9.803058697509766,1.3239935180664073,73.91139945068359,691.1379370501775,0.3393513589585151,-0.4513226260595093,-0.4482543993093154,-0.1254945010419226,-0.1089665009141115,0.1591862512707832,0.1909203677944942,-0.2498085761442265,-0.1777970905943841,-0.2273924199115512,-0.0593878255020207,0.1680045944095304,1.4995176130684102,0.29771168732088,0.2176572197542101,-0.2497490335638754,-0.1817462097304052,-0.2614604165912592,-0.0197015697052413,0.1324278058623475,0.1251041349330286,-0.2491424199411752,0.0157879020123151,-0.0628518377578873,0.0632182236695655,0.1260700614274529,0.8149754988129241,0.1434022049149287,0.3939118764460894,-0.2903865691965228,-0.3808708551746729,-0.2779155226172,0.0665490046848219,0.3325297566645708,0.6196585000782922,-0.5169372135677861,0.169869831778074,-0.1951837674940223,0.2189988517531052,0.4141826192471276,2.375779482562052,0.9200384727355132,0.1278536882920381,-0.2440437245685837,-0.1459282915678632,-0.1638305026942036,1,normal_operation,1.0107751436945889,strong_normal,2025-04-03 00:47:01.018787
-0.2355295883178712,2.101688372799405,2.1739351074218747,-3.950432739257813,0.2741360900878906,-1.6938976745605467,1.6041151123046873,3.2980127868652342,15.239093566894532,35.78054562666718,-0.0385136694002094,-0.4049551612511356,-0.1860561635641186,-0.0395695437121659,-0.5773018753051757,2.4049789752504083,2.3391350219726563,-4.580107775878906,0.3615244506835937,-2.4959552307128905,1.0576385833740234,3.5535938140869137,16.072275744628904,48.93761061301902,-0.3605397653414126,-0.3119916658561416,0.4446514802010156,-0.2406183818355622,8.744223013305664,0.7794604251074998,9.770736975097655,7.165845568847656,8.760383874511717,8.371924655151366,9.32002851257324,0.9481038574218754,69.95378410644531,616.5519572858651,-0.0023074752616241,-0.3253039631523367,-0.1370547431460508,0.1051801842972861,-0.1555974351277005,0.2043206787939393,0.1909203677944942,-0.455517611646459,-0.1880558961213737,-0.2724911948581223,-0.0717783308787743,0.2007128639793479,1.8725650867771215,0.5276600128090808,0.2668197663677888,-0.2765710235794922,0.0497473593088158,0.0527596545877784,-0.0578556662350028,0.1727592439724312,0.1630750385069511,-0.2939081167862207,-0.0581554365263758,-0.225960184074991,0.1254705208447068,0.3514307049196978,1.2923430339194648,0.2655442759473765,0.0896222712852397,-0.5943672029851057,0.0014969735186458,0.4055707485621244,-0.0170369448930362,0.3743774891579151,0.6196585000782922,-0.5169372135677861,0.0013323124061025,-0.2918097247466091,0.2213970140840898,0.5132067388306989,2.6999310909668,1.1235900950357858,0.0219364423237398,-0.6180879979785817,0.1895193312093407,0.3445262057910751,1,normal_operation,0.5406550639212004,strong_normal,2025-04-03 00:47:01.018787
-0.0430956298828126,2.0515014888315943,2.1739351074218747,-3.950432739257813,0.1915361328124999,-0.8032546569824218,1.762132421875,2.565387078857422,12.966996191406247,33.68412473594596,0.2082766825578264,-0.3753533118613699,0.0267922841218134,0.0820507529658447,-1.1578957778930663,2.337844424502972,1.8818425048828125,-4.989516259765625,-1.464054315185547,-2.4959552307128905,0.994790789794922,3.4907460205078125,18.102558752441407,54.44991348513776,0.1426371609254776,-0.6333723902622547,-0.3406486292596875,0.2342366859233459,8.763376626586913,1.1140537990551815,10.448296044921875,7.101202124023437,9.01536635131836,7.99902774658203,9.427767587280272,1.428739840698242,70.1070130126953,624.3030861327929,-0.3194525430084263,-0.1858775589497683,-0.2353817752866914,0.3235936474799979,-0.26739509990478,0.136910966615847,-0.0542251149283734,-0.455517611646459,-0.261066615975793,-0.3679180709452168,-0.1691703677648701,0.1987477031803466,2.1391607992382404,0.7219580178621832,0.0466275600117802,-0.2690072026446943,-0.1970321287574537,-0.3693274201444885,-0.013423047491483,0.147235602812664,0.1630750385069511,-0.2939081167862207,-0.0275122511860174,-0.0981581165196047,0.133164624989949,0.2313227415095537,0.9925727425463932,0.1748680075165374,-0.1035021194291644,-0.3612961948635346,-0.0322648348143074,0.2734246320303629,-0.1121473967836814,0.2803345643140207,0.2644640126113545,-0.4861607969868174,-0.1589448700480332,-0.3344437217418904,0.1863571978035929,0.5208009195454835,2.1991148575128547,0.7293160524359064,-0.046865877625047,-0.4916258534591992,0.3222098464592572,0.1105336466133544,1,normal_operation,0.48132134900498347,weak_normal,2025-04-03 00:47:01.018787
1.5861585998535157,3.4469885963709657,10.414777221679689,-0.7996633544921875,0.1915361328124999,-0.2705447875976562,1.3958195678710936,1.6663643554687495,15.4378123046875,115.18103589920597,-0.1624877611438418,0.0148264741866573,-0.0855697312674039,-0.1150400013701247,-2.0703858856201167,2.0426047484683867,1.8171990600585937,-4.989516259765625,-1.8519149841308593,-3.900154504394531,-1.09175595703125,2.8083985473632813,20.197485205078124,67.66985499072479,0.1066601225014153,-0.2656907549823141,-0.2306215992401687,-0.3890338727207014,7.609670701599121,3.393954383590492,10.448296044921875,-0.9361328491210936,8.969876519775392,7.3094976684570305,9.393051663208007,2.083553994750977,62.74963131103515,555.4081163573534,0.1001198890035095,-0.0840015408438266,-0.1159726555077111,-0.0834637800035861,-0.0850181854144184,0.2575846566493879,0.482830015971561,-0.4500551307814386,-0.0947274120738906,-0.2135030630779322,-0.0344735835079032,0.1790294795700289,1.695367536765484,0.588623577538748,0.3297544543157691,-0.0076869849264975,-0.0005913552878625,0.0279517788572596,0.1548813172094205,0.4503557423276407,1.3284487001248444,-0.1175099542182441,-0.0075275650944793,-0.0587216692989694,0.0625187596563617,0.1212404289553311,1.7884961739520515,1.8144681365440432,-0.0243167821807426,-0.0147271394164399,-0.1144998047348959,-0.0989838841142467,0.002897779483273,0.3030755359348466,0.5120076576652067,-0.4472572747286232,-0.0215834609788612,-0.2242947935673628,0.2143690661418988,0.4386638597092617,2.093329252468313,0.7349054208650257,-0.0169811926528328,0.0574152924233206,-0.3868103977838458,-0.1332303521688661,1,normal_operation,0.6301174928022979,strong_normal,2025-04-03 00:47:01.018787
1.976114195251465,3.310879213168295,10.414777221679689,-0.7996633544921875,1.109712469482422,0.3758896606445312,1.736993304443359,1.3611036437988278,18.04988631591797,118.93558781491402,-0.2399660289067738,0.0150960119704755,-0.3030560806742451,-0.0943565995631122,-1.428141290283203,1.8855789740122315,0.7852981445312499,-3.936067529296875,-1.3192051147460937,-3.1376012756347653,0.4824316345214843,3.6200329101562496,15.275006591796872,44.75996489799033,0.4446590134570358,0.1004125542572028,-0.2111576569513911,-0.4378824807830046,7.66832864227295,3.3771397148174622,9.840168823242188,-0.9361328491210936,9.115922821044922,7.436390356445312,9.66000514831543,2.2236147918701175,63.21889483642578,561.6666945544084,0.1357652356344937,-0.2941235943122053,-0.3344019341894957,-0.1803965286758445,-0.0645338821705918,0.228372356413931,0.482830015971561,-0.2900444108085233,-0.1160444105715313,-0.1749992345415688,-0.0537588055862375,0.1212404289553313,1.5314931108148713,0.4505484409764752,0.1120983992593356,-0.2362053727726752,-0.0947186583540916,-0.2819948749219689,0.2016288287585433,0.4333679828543171,1.3284487001248444,-0.1175099542182441,0.0415681470703992,0.0226826187138957,0.1327982390782708,0.110115620364375,1.8608407376034195,1.8276959451980936,-0.1371934638320509,-0.0807134387956883,-0.3304896762410836,-0.0849197248445663,-0.0007660796335089,0.2658863973647952,0.5120076576652067,-0.3328116390444148,-0.0866669220169703,-0.1840256510929135,0.1155447934192428,0.2995704445121563,1.7637151631985444,0.565569305453077,0.0498346220166863,0.402745200217684,-0.3673224205261454,-0.0826460091287732,1,normal_operation,0.5197207910608976,strong_normal,2025-04-03 00:47:01.018787
1.2847884658813475,0.5065914278264396,2.0566192260742184,0.6081272216796875,1.177947216796875,0.9546879119873044,1.7004817291259762,0.7457938171386717,10.27830772705078,15.258530214471818,0.2524262937528594,-0.4178965437452688,-0.4836046199962516,-0.0916015868345914,0.5716156463623047,1.4201802809191262,2.3032219970703123,-2.887407202148437,0.7649474304199217,0.5817910034179687,1.2491747161865234,0.6673837127685547,10.347739575195313,18.749251819821787,0.1426000403573687,0.0621185078502365,-0.0217423325884154,0.0053000131623284,9.494805233764648,1.2129306273608644,11.719617126464843,7.455543969726562,9.417592230224608,8.762179525756835,10.02990930480957,1.2677297790527344,75.95844187011718,732.9802170713165,-0.1956196683442562,-0.1898006130300666,0.1750299282574126,-0.1154779011841502,-0.1677048241181574,0.1573523807914594,0.1866569680949661,-0.3682511490467425,-0.1631416541272562,-0.2845486221333503,-0.134463629585899,0.1500849925474512,1.7149525291351917,0.4230774381859405,-0.4819372427828191,-0.0736455224243399,0.1953676689252812,-0.2723479552946575,0.031509188404325,0.1007266508700655,0.1738667689963816,-0.1456217459870078,0.0415681470703992,-0.0271458652743392,0.1148120215958865,0.1419578868702257,0.7269096487695464,0.0891094971951947,-0.0519769668961187,0.2219973337042353,-0.0064854823344785,-0.2287794173863826,-0.0320754211769186,0.2020949041087172,0.2661960187392878,-0.3328116390444148,-0.0866669220169703,-0.1837258808015404,0.176431470378129,0.3601573511796695,1.5108422685202818,0.3349694632831066,-0.0576150374400327,0.0881751159754542,0.037539317759041,-0.4116628621391843,1,normal_operation,0.7633046358977769,strong_normal,2025-04-03 00:47:01.018787
0.8481459381103515,0.982745962364362,2.2960393920898436,-0.9648632690429688,0.8583212951660155,0.4465186096191406,1.4490905548095705,1.0025719451904296,8.90643017578125,13.481129271012351,0.0255656662928695,0.0130617202798914,-0.2364867834995635,-0.2747242984257865,0.295683905029297,1.690743359123789,2.3032219970703123,-3.438073583984375,0.9241618408203124,-0.3585316986083984,1.356913790893555,1.715445489501953,11.401188305664062,23.56833662491654,0.1001485756538957,0.2050147259716007,-0.2531021669110551,-0.2106711283227431,9.364021968078612,1.0850789217804422,11.719617126464843,8.528146313476562,8.878896856689451,8.697536080932617,9.3960444152832,0.6985083343505849,74.9121757446289,710.8984294812085,-0.1706552914989269,-0.2357837471833781,0.1922070658043362,-0.1812399838334022,-0.1352130553143316,0.149495299078118,0.1866569680949661,-0.3682511490467425,-0.1628085760257306,-0.19528369092448,-0.1038870598658456,0.0913966310586343,1.4550183787045856,0.3250513181911398,-0.532133825034307,-0.0870040039245369,0.2809060297589735,-0.1098700593804672,-0.0589215161598849,0.0909718371959922,0.1133797857593263,-0.2058422667428427,-0.0722113324107577,-0.0989575039632662,-0.0055624042954781,0.0933950996677881,0.7039938753845829,0.0939809618351495,-0.2587064914211777,0.2031232258854136,-0.4263879767663797,-0.0834076324981663,0.0675815467995514,0.1402864348744616,0.2661960187392878,-0.1989142422311094,0.0856676877123933,-0.0291776416936456,0.176431470378129,0.2056091120717746,1.0562572755580946,0.1939803942208521,-0.3859528157389215,-0.1263739393602189,0.2676128663460132,-0.1434954351077381,1,normal_operation,0.7157961400635422,strong_normal,2025-04-03 00:47:01.018787
1.0103531005859374,3.0571775592801185,8.59278975830078,-1.3910311645507811,-0.1939303344726562,-0.7583633758544922,1.044470474243164,1.802833850097656,14.949395166015623,82.93718413463645,-0.3113755533973854,-0.1020035921573582,0.0646073143977923,-0.0712903247569068,-0.6215946060180663,1.2409114739279108,1.347935534667969,-3.438073583984375,-0.4824316345214843,-0.70868369140625,-0.1897404815673827,0.5189432098388672,7.668627917480468,15.40992912285356,-0.3104603039236255,-0.1606178475167983,-0.0018194734193772,-0.1033971821387912,8.751405618286132,1.075502827835973,10.249577307128906,6.229712719726562,8.991424334716797,8.56226368713379,9.19313582458496,0.6308721374511705,70.01124494628905,621.950453027626,-0.490969962724416,-0.0801428923189378,0.0603861747383972,0.0846796886009807,-0.2965727415984257,0.3291678947765737,-0.0442327718826043,-1.1496523752258831,-0.2032442575509427,-0.2358192958801498,-0.1429571211748027,0.0928621747053471,2.372581932787406,1.5704551520867849,-0.0058264781572598,-0.0735107641503387,-0.0914942642188375,-0.0480651068858657,-0.0433501149135614,0.121083908176999,0.2019785607651453,-0.2058422667428427,-0.0722113324107577,-0.1271692191624875,0.0176531393808586,0.1448223585433461,0.8802588067119491,0.1323243622594793,0.1474077202891542,-0.3338413055877731,0.159443076470924,0.0959238273449934,-0.2205643188302758,0.56689910492486,0.1561470139952178,-1.6859081186821565,-0.0294441041748661,-0.1303667689371336,0.0703460950422141,0.2007128639793478,2.4194793294822157,2.960185711245368,0.034704488992669,-0.1290045642686851,-0.0408789933381105,-0.100694005790792,1,normal_operation,0.1888678045459804,weak_normal,2025-04-03 00:47:01.018787
1.370680450439453,2.9874456506497995,8.59278975830078,-1.3910311645507811,0.1675941162109374,-0.3914519714355469,2.1368249816894527,2.5282769531249993,16.122553979492185,86.42877130242644,-0.3421650444390493,-0.2179674674558949,-0.1101249571281031,0.1668701877500057,-0.4252700698852539,0.4762294261411379,0.5267243652343749,-1.2880804931640624,-0.4824316345214843,-0.5901707092285156,-0.2477998718261718,0.3423708374023437,4.455609289550781,3.2611927893034105,-0.0904817292279039,-0.3616851271977785,-0.0545437213855843,-0.1560709655278361,9.000402590942382,1.238270908651975,10.249577307128906,6.229712719726562,9.223661895751952,8.84238528137207,9.935338339233398,1.0929530578613278,72.00322072753906,660.3244931380491,-0.3123083904788538,-0.0875409446517331,-0.2113505443982672,-0.1161496290885944,-0.2639810493641423,0.3484091319442587,0.0546248086502042,-1.1496523752258831,-0.1733338440339406,-0.2358192958801498,-0.1013223584840982,0.1344969373960515,2.221098012213547,1.5285993411643652,0.0792744101161616,-0.3329848933869737,-0.1398063035083518,-0.0196707161024299,0.0420178025074589,0.1253711803438168,0.2089065852768785,-0.1405589588438181,0.0657496172411604,-0.0631516080492604,0.1257369833259273,0.1888885913751877,0.9492725893480608,0.1398674287068612,0.0045523188090706,-0.2392923687613297,-0.1344159900412397,0.2930857819752926,-0.2203478180642841,0.5739383169423065,0.1720015316278381,-1.6859081186821565,-0.0095260337036331,-0.2177997705876129,0.0973920368860957,0.3151918074737087,2.7108560526968413,3.0236668206420667,0.0060901130086998,-0.3125478127239078,-0.1701881117040367,0.0420112810809316,1,normal_operation,0.2909739822917703,weak_normal,2025-04-03 00:47:01.018787
1.7684172012329102,1.037297324105705,3.383006945800781,-0.2059013427734375,2.0219033020019532,1.6077064147949218,2.1458032379150387,0.5380968231201169,14.559140295410156,33.62628108970636,0.2475436648735264,-0.0859576305576075,-0.0275847857075967,0.0029143766843205,-0.3184288208007812,0.7212649230025115,0.9816226806640624,-1.2880804931640624,-0.4165910888671875,-0.7146691955566407,-0.0335188232421874,0.6811503723144532,5.5641246582031245,4.972960024563159,-0.1851685040411219,-0.2497410596719722,0.2283523131084408,-0.301997421615457,9.251793765258787,1.0705212640199009,11.192892761230468,8.003816149902343,9.336189373779296,8.13310303955078,9.935338339233398,1.802235299682618,74.01435012207031,693.9336292128013,-0.1073154042981542,-0.7380388518873396,0.1505670459216931,0.3559197702899356,-0.1484862176601282,0.0990768009233961,0.0546248086502042,-0.2660627874986775,-0.183526033940625,-0.2082404290738272,-0.1013223584840982,0.1069180705897289,1.297139358581434,0.2549149545298019,0.2303525284873559,0.0585404654720496,0.0941794407319235,-0.3761770840773694,0.0249308958991937,0.1083468084354121,0.2089065852768785,-0.1624088823038998,0.0437664625404684,-0.0505612558115914,0.0856343799022408,0.1361956357138322,0.7555543655007511,0.0988846437478106,0.2302807111623039,0.032538804270344,-0.2266888290203143,-0.4133595570479436,0.081271056772255,0.1344099856379003,0.258468606783893,-0.2037105668930786,0.1023215927886751,0.0440662328318415,0.1736669221354662,0.1296006893036247,1.1135467090205038,0.1973682312644772,-0.2113328561476871,-0.11268254316041,-0.1181799625260248,-0.3131584842592602,1,normal_operation,0.2904664004640045,weak_normal,2025-04-03 00:47:01.018787
1.0486603271484376,1.5832204970903865,3.383006945800781,-1.3958195678710936,1.5382745666503903,0.1179144317626953,2.0015525878906253,1.88363815612793,13.843273999023438,28.850204993137588,0.1949112328607356,0.1427354903331776,0.0270789370926182,-0.4104661925634902,0.168491941833496,0.8770182724531772,1.6160861206054686,-1.1420341918945311,0.1735796203613281,-0.5698199951171875,0.7625532287597656,1.332373223876953,6.361393811035156,6.380404677436621,0.0602807667822703,-0.194792126021478,0.0715720306965362,-0.240067252164409,9.40442412109375,1.0456105279280488,11.192892761230468,8.02536396484375,9.342174877929686,8.612541921997071,9.995791931152343,1.3832500091552724,75.23539296875,716.2919554041913,-0.3638787341775468,-0.2614006205114823,0.1994739939626612,-0.0600548682101241,-0.0264130934509828,0.2376572147002009,0.3811745793859372,-0.2660627874986775,-0.134230474914831,-0.2039437215641464,0.1193751915867877,0.3233189131509342,1.7229464035718065,0.4574288256376619,0.3234318412966712,0.3173245285071293,-0.0742050516363024,-0.311753366786228,-0.1112147780994096,0.14853036374549,0.080738131809814,-0.3873032164540089,-0.0772741195539474,-0.1926190661122749,0.0038637059776973,0.1964827720899722,1.0869004608984532,0.2754399665765482,-0.210580933181592,0.2137111217709835,0.0923284283392646,-0.1870904413514051,0.0792559342580249,0.1718915166543831,0.2692603372733236,-0.2499418073848368,0.1472871364946359,-0.0432335375780274,0.1986144719397363,0.2418480095177637,1.367885147345479,0.2866255729028514,-0.4719840847057213,0.1454706450952034,0.1514533902869277,-0.3222441552906931,1,normal_operation,0.7678055892317701,strong_normal,2025-04-03 00:47:01.018787
-1.0752958206176757,4.068007626772764,2.1643583007812497,-11.410765112304686,0.6308721374511719,-1.3473369842529297,1.025316860961914,2.3726538452148436,19.673155041503904,141.63957722655374,-0.0562791565088403,-0.3732990031157845,-0.0932186452808839,-0.0855119733587768,1.0265139617919925,2.6060546201630914,7.058106494140625,-2.5426421630859375,0.6284779357910156,-0.3220201232910156,1.62147307434082,1.9434931976318357,14.925453149414064,62.762012776218285,-0.5041367229624922,-0.1270402614404322,0.2062700129130286,-0.0998939801252562,10.073304209899902,1.8600951383605897,14.769830041503903,8.760383874511719,9.33379517211914,9.063250384521483,9.995791931152343,0.9325415466308602,80.58643367919922,839.4512930315182,-0.0743134313220476,-0.2643263588461377,-0.1737151338738254,-0.1375404095953842,-0.0520267994583042,0.3494555567142812,0.3811745793859372,-0.8473506902812165,-0.0608866769588861,-0.0972254978353329,0.1193751915867877,0.2166006894221206,1.9278560516303775,0.9986077918429026,-0.278647725495852,0.1233299095099691,-0.3383855849768648,0.0195897785754343,-0.13960968625447,0.2238515351902911,0.1324318531665926,-0.5481133238705856,-0.0415015314500941,-0.3092630172665525,0.0184858346346727,0.3277488519012251,1.4864609514886054,0.5568029944249737,0.1680833687481122,-0.3349945420346742,-0.1897322757572008,-0.1301365333470835,0.0607700996233521,0.2528854895384034,0.5174701385302272,-0.2627320064834212,0.0619525268837681,-0.1292343033919464,0.2002132468270594,0.3294475502190058,1.77717151850018,0.5411526066184809,-0.0606760295461265,-0.4310591669918187,-0.0769240513605306,0.0883516011494356,1,normal_operation,1.0190492832728784,strong_normal,2025-04-03 00:47:01.018787
-0.2681505859374998,4.257241318820564,2.454056701660156,-11.410765112304686,1.025915411376953,0.6506243011474608,1.5269021087646484,0.8762778076171875,20.67632553710937,145.56806706729344,0.0080165048129154,-0.1243253458072208,-0.0142967782643142,-0.0009088953936121,0.6183025787353515,2.874113384709732,7.058106494140625,-2.5426421630859375,0.0371101257324218,-1.5538368774414064,1.7459715606689452,3.2998084381103516,17.209521533203123,69.14260661630736,-0.2957354739327048,-0.1779981551956012,0.2621774557755029,-0.1018916357836713,10.409390267944335,1.828030489396628,14.769830041503903,8.851363537597656,9.79348189086914,9.153631497192382,10.59793364868164,1.444302151489259,83.27512214355468,893.5768097643033,-0.1005205385621423,-0.0667792066108153,-0.1614485543451449,-0.2228114533975493,-0.2841489284115195,0.2713091207939778,-0.0558238898156965,-0.8473506902812165,-0.1155781012293954,-0.4685409654161113,-0.0942277949216022,0.3743131704945091,2.273191427292156,1.2347940203473289,0.0389488766301724,-0.0848258625560166,-0.2188456165270544,-0.2218289712378914,0.0058621745868511,0.2161776543425598,0.1629418072663408,-0.5481133238705856,0.0676148546097039,0.0152882848600266,0.1335310109016272,0.1182427260416005,1.1431240444359805,0.374137146623504,0.1052107511958033,-0.104127045533015,0.0101556870784111,-0.0741489693852318,-0.0006328483928986,0.2629557149826829,0.5174701385302272,-0.3642542118284348,-0.0452986218074864,-0.1751990814024841,0.1672052069658689,0.3424042883683531,1.7221470161281451,0.5531688683131392,0.0800844923271619,-0.2632766299406895,-0.0927162445723168,0.1933223655082319,1,normal_operation,1.2651382024683158,strong_normal,2025-04-03 00:47:01.018787
1.4796166259765624,0.6912954125155188,2.454056701660156,0.5698199951171875,1.369483349609375,0.9469067565917968,2.1110873138427735,1.164180557250977,11.8369330078125,21.337237657850142,-0.3013491185299137,-0.0754534795503138,-0.1643321728335088,-0.1379855282373298,0.3612251754760741,1.6232124173915372,3.258508459472656,-1.9201497314453124,0.0981622680664062,-0.6488286499023437,1.3455413330078123,1.994369982910156,10.599130749511716,22.122417434974395,-0.1480414833093029,0.2157408022745462,-0.4372965959139953,-0.1040140071966791,10.334571466064451,1.2534308823787457,11.935095275878906,7.848193041992187,10.466252557373046,9.843161575317382,11.328763705444334,1.4856021301269529,82.67657172851563,866.9956509127546,0.1042326636718122,-0.6313597701411536,-0.1115927074544495,0.3778601235947372,-0.2155181855921623,0.1883753460007935,0.0568897397405785,-0.5168039823271758,-0.1393598776783258,-0.3775107202691551,-0.0969590353541124,0.2805516849150427,1.837924964218456,0.6554668744148514,0.3705689291414851,-0.3833849842669183,-0.5565607062032261,-0.1154714835096934,0.0496286371273196,0.0721466235835639,0.1629418072663408,-0.0309096478215789,0.0427672282358915,-0.023415390537252,0.1044532926384392,0.1278686831756913,0.5609035229691697,0.0613450953409891,0.4604615836467166,0.2874706616047897,-0.1943251465747502,-0.2789200060360578,0.0248143185636598,0.2332524018705786,0.3627886681817221,-0.3642542118284348,0.0585551302482067,-0.1564800920967434,0.1877894336401531,0.3442695257368966,1.6883062810131404,0.4401794670733818,0.1079541706528648,0.1717795580265176,-0.5076568016324761,-0.0725324155233344,1,normal_operation,0.5169515687755513,strong_normal,2025-04-03 00:47:01.018787
1.3539210388183591,1.2107436605792052,3.2130186279296873,-0.6560112548828124,1.6543933471679688,0.4267664459228515,2.1110873138427735,1.684320867919922,12.148179223632813,26.39201912790175,-0.3681964576023806,-0.32064290274048,0.4228706608415296,-0.3538985827867786,0.2750339157104492,1.6204418819976691,3.258508459472656,-1.8698714965820311,-0.1711854187011718,-0.6679822631835937,1.3144167114257812,1.9823989746093749,10.41717142333984,21.61180438178536,-0.0348530619991221,0.0219887429304352,-0.1310172629911678,-0.10506036023182,10.146327360534666,1.48870663990847,11.935095275878906,7.848193041992187,10.764330664062498,8.905233074951173,11.307814440917966,2.4025813659667925,81.17061888427733,841.3136509347356,0.1047024303406779,-0.4569678538461503,-0.3523531605607103,-0.1709358900770681,-0.1744330017689752,0.2197813549863735,0.1586784075668127,-0.5550413483823189,-0.1364954060052053,-0.352796325135953,-0.0434333844389428,0.3093629406970102,1.8266003087665843,0.6298457288462531,0.0314666601332275,-0.3607343984492828,0.0456611634499507,0.1103197348302579,-0.0587216692989694,0.0990650596728679,0.0687473201548911,-0.2196983157663091,-0.0303101072388327,-0.1225394335512812,-0.001898545178696,0.1206408883725851,0.719981624257813,0.1060969639459713,-0.2033830763124602,-0.1264613744072346,0.3014726845540699,-0.2396415503029095,0.1833428409847859,0.1733678325571286,0.3627886681817221,-0.1878560492604583,0.2472105669523265,0.1295340736833195,0.2853147017668593,0.1557806280835397,1.8424548263992049,0.5093680216474328,-0.4052993290024559,0.1290574802186653,-0.0927862757940694,0.0626229509225388,1,normal_operation,0.8663469591938258,strong_normal,2025-04-03 00:47:01.018787
1.1941080780029296,1.3155074685870498,3.2130186279296873,-0.6560112548828124,1.1959037292480468,-0.0047884033203124,2.25354231262207,2.258330715942382,10.893617553710936,25.25163201488127,-0.2122979964694603,-0.5999195619100024,0.3717104330200482,0.2190498637489925,-0.1984194625854491,1.1993620753908114,1.946485949707031,-1.8698714965820311,-0.4249707946777343,-0.9624690673828123,0.6117185241699219,1.5741875915527344,8.429984045410155,11.822717368147623,-0.1433818184274801,-0.210761160469258,0.2210088080678419,-0.341978859566229,10.89032552642822,1.445230406306251,12.5264630859375,7.967903124999999,11.292252130126952,10.480019216918944,11.883021389770509,1.403002172851565,87.12260421142577,965.5030479910902,0.475731122939948,0.0050236547909515,-0.0721429797219348,-0.2861648664337388,-0.1649402758754946,0.1991744329423115,0.1586784075668127,-0.5550413483823189,-0.1324318531665926,-0.2127036756342707,-0.0924957887936689,0.1202078868406018,1.6368790221375824,0.535005994750205,0.064160090170218,-0.6250247635867495,-0.1248224600446309,0.1399969595740808,-0.1093162329207135,0.0952017391936244,0.0563568147781375,-0.2196983157663091,-0.1281018378467593,-0.1975153142047017,-0.0338074273048519,0.1637078868998497,0.987243492921983,0.1681072794037326,-0.2538454429502763,-0.3718035531988338,0.3400162677457972,-0.0309287915843485,0.2603338441524366,0.1160119968952427,0.4176799393131468,0.0165206738356715,0.2543384383249751,0.2190321595632578,0.3531627110476312,0.1341305514843733,2.082670753219493,0.6498599506784557,-0.1106241318039125,-0.002091748769894,0.0524760548510338,-0.270721880832967,1,normal_operation,0.060289476329429936,weak_normal,2025-04-03 00:47:01.018787
1.547552098083496,1.128580378426689,2.906560815429687,-0.0622492431640624,2.057816326904297,0.3776853118896484,2.441487142944336,2.0638018310546875,12.528857287597654,29.348889334818875,-0.1809195826277639,-0.231198749745355,0.21768967468247,-0.3226368407421728,0.3920505218505859,0.9590501782412536,2.0254946044921875,-0.7805097412109374,0.373495458984375,-0.5955576629638671,1.082777700805664,1.678335363769531,7.115567333984375,8.587846848543176,0.0244479472229287,-0.1865094512697447,-0.1034635926782992,-0.1758383330210759,11.47211652984619,0.6900192793035439,12.5264630859375,10.5344873046875,11.496956372070311,10.870872637939453,12.026673489379885,1.155800851440432,91.77693223876952,1056.6846742414464,0.3386084399574033,-0.2858757069055,-0.5505850928648515,-0.2010470939254328,-0.0940612558708394,0.0788070108573489,0.0343736600774455,-0.2226294030597347,-0.0935283309083983,-0.1497519144459256,-0.0385371363465159,0.1112147780994096,0.8212373671216062,0.1204645185301586,0.02119734336538,-0.6160619929046844,-0.190623537439756,0.3133871376869843,-0.0720614472650711,0.07795056455792,0.049295559025794,-0.2057090355022324,-0.0454984686684017,-0.1309663095198798,-0.0299104135170019,0.1010558960028778,0.6750826961721574,0.0901531415746807,-0.0393848328270767,-0.0727162197796138,-0.2724604945558466,-0.3083615149645227,0.2763215930256671,0.1719616659957623,0.5692970911276161,-0.0474303216572504,0.2635980095473879,0.1963162330392094,0.3767113328254936,0.1803950997862841,2.305433387519838,0.8473954987542442,-0.5755595970607029,0.2423320368435602,-0.0971574219112273,-0.1733862484043991,1,normal_operation,3.5048728930231476e-06,weak_normal,2025-04-03 00:47:01.018787
1.6570868240356444,1.130775917023456,3.1411925781249996,-0.0622492431640624,1.7872715393066405,0.8391676818847655,2.60489140625,1.7657237243652346,13.38119307861328,32.196727335302214,-0.362143082593528,-0.4753937979290939,0.3419958329851422,0.2501780414869061,0.3235164993286132,1.255498233072594,2.0254946044921875,-2.31758720703125,0.5363011718749999,-0.1394622467041015,1.106121166992187,1.2455834136962889,8.396465222167969,13.44750990868997,0.2111487264896505,-0.1517127342398147,-0.1307740700652436,-0.4350683679419944,10.147823736572263,1.3661978453961146,11.994950317382813,7.886500268554687,10.600327850341795,8.965088116455076,11.076175430297848,2.1110873138427717,81.18258989257811,838.7585851304357,0.5568435096862565,-0.1033508411748803,-0.30323400493219,-0.2180240682276061,-0.1106651992318923,0.1377616655034015,0.0343736600774455,-0.3238851459235278,-0.05509111799234,-0.2405823127319664,0.006861408891428,0.2474437216233945,1.0209509967963777,0.249800502426444,-0.0753917397960614,-0.2326371398011439,0.2311318960684597,-0.3152537532109432,0.0056456738208595,0.0764697687808646,0.1488192957616539,-0.1220398163989928,0.0012656967857974,-0.0390367534988043,0.0500616386593029,0.0890983921581073,0.50348085826615,0.0470359933623234,-0.0321724486851873,0.1937116122780376,-0.1797885343042052,0.135107587951599,0.21100497731649,0.1874123867950782,0.5692970911276161,-0.0474303216572504,0.1847251151061173,0.0625187596563617,0.3218533695042215,0.2593346098478598,1.782900461846421,0.637172025412484,-0.4048755884761008,-0.1363265076575527,0.2969976817720618,-0.1039413665276807,1,normal_operation,0.35446127168601205,weak_normal,2025-04-03 00:47:01.018787
2.479195819091797,2.189805671249218,7.750030773925781,0.1101332763671874,1.6172832214355468,1.435922445678711,3.006518734741211,1.5705962890624998,19.833566552734375,87.53328629789988,0.1269156902058256,-0.10751481613528,-0.0645464175151209,-0.0146989868754936,-0.5593453628540038,1.574442893567714,1.0438719238281249,-3.2704794677734372,0.0502782348632812,-1.9764134704589844,0.8637082489013672,2.8401217193603516,10.426748229980468,22.333901280417216,0.1717776449940066,-0.486096428116557,0.0028797864258854,0.3756162567080645,8.670900587463377,1.7728440634492384,11.487379565429686,5.542576843261719,8.29231744995117,7.860164050292968,9.567828384399412,1.707664334106444,69.36720469970702,626.6199445678396,0.0063256364232159,-0.3420333383953652,-0.0075128106499071,0.0032193582052263,-0.1655398164582407,0.158570644958919,0.0334410413931738,-0.4110183772826341,-0.1508843799911128,-0.3018020677923782,-0.0189854517869612,0.282816616005417,1.391200614452274,0.4203846422057247,-0.1428706659819068,-0.7666433707127503,0.2469349275178161,0.4504687428303172,0.0779902374722275,0.109226359017128,0.2904441045303541,-0.0815375192534755,0.0543583461689836,0.0125570444275164,0.1503514550286718,0.1377944106011554,0.8296309352800523,0.1441029971609039,0.0482605465606767,-0.3592734862884417,-0.1501597926401918,0.1783166279126071,0.0684142420533654,0.2128912140906532,0.3797090357392244,-0.3809081169047166,0.1149119450263441,0.0106584992488203,0.1815275653314713,0.170869066082651,1.503647781527328,0.4000254204218308,0.1961982295521446,-0.1499291850231587,-0.0725892065540447,-0.0777910231185319,1,normal_operation,0.723236630096765,strong_normal,2025-04-03 00:47:01.018787
2.3466169021606444,2.201094239676973,7.750030773925781,0.3088520141601562,1.5658078857421875,1.1450269439697267,2.6958710693359373,1.5508441253662106,18.772935217285156,82.81141389956137,-0.0985744900160823,-0.0813909696978738,-0.1332447066491462,-0.274230171542024,-0.8705915786743164,1.4111833315146414,1.0438719238281249,-3.2704794677734372,-0.8092401611328124,-1.8878280090332031,0.2220622039794921,2.1098902130126955,10.465055456542968,21.9949447360272,0.3704846654501432,-0.3123172454537674,-0.5128786874338271,-0.3691226598928983,8.89984612121582,1.6753945750724155,10.991779821777342,5.542576843261719,9.05367357788086,7.9481509613037105,10.201693273925782,2.2535423126220717,71.19876896972656,656.113663708019,-0.0742049151442767,-0.5837790321672796,0.1119481525387662,0.1067376593944496,-0.2095727414799297,0.1387840167202454,-0.024647779512897,-0.4356661567955311,-0.1826600308766583,-0.2754222821515479,-0.1215068914365517,0.1539153907149962,1.6765819318394382,0.5054538981473506,-0.5124052788126359,-0.2652753106301997,0.5477148261553739,-0.2974999827203674,0.118092840895914,0.1242848243504948,0.2904441045303541,-0.0815375192534755,0.1303001533168284,0.0333411179627161,0.2151018379652552,0.1817607200025391,1.1792297106413594,0.2351410930776082,-0.1502346824910561,-0.3992055913444311,0.3894419345337966,-0.037697160342352,-0.1304500384625151,0.2028350956306583,0.1783966311771303,-0.3809081169047166,-0.1559471671343024,-0.2848150846145708,-0.0083602603482934,0.2764548242662774,1.724411947218519,0.4652743084349598,0.4208350793112438,-0.0819161989117717,-0.1490996388052893,-0.2669726529821638,1,normal_operation,0.39795858406095874,weak_normal,2025-04-03 00:47:01.018787
1.446696353149414,1.106545868396894,3.6104561035156246,0.3088520141601562,1.006761798095703,0.6015431671142577,2.117072817993164,1.5155296508789065,11.573570825195311,26.5389927766564,-0.1086528049197609,-0.629224993687325,-0.0221970259766212,0.4248711204844624,-0.6180033035278321,0.9102379055528,0.6631938598632812,-1.9632453613281249,-0.7733271362304688,-1.2156558929443355,0.125097036743164,1.3407529296874998,7.501033801269531,9.683689023011691,0.2756587650248898,-0.1856862665823618,-0.4059642371110873,-0.3964669949420398,10.007463664245606,0.9504546650709916,11.954248889160157,8.961496813964843,9.764751470947264,9.21947204284668,10.541071359252928,1.3215993164062496,80.05970931396485,808.4215444924104,0.2923162599252136,-0.1288974975845365,-0.2939016667071519,-0.3891480365712858,-0.2063085760849785,0.1046259130244322,-0.0768744258321166,-0.4356661567955311,-0.1826600308766583,-0.2479766465858355,-0.1360290966630694,0.1119475499227661,1.6504686086798284,0.4280784819392594,-0.2607662104536442,0.0568944367037368,-0.0104710861264404,-0.2975663999331916,0.1250874810279523,0.0958333118852482,0.2516738135127701,-0.0357059724835481,0.1185758041431262,0.0812044411519498,0.2099724352017604,0.1287679940498106,1.072111793190715,0.1986472126145088,-0.2184979581390187,-0.3443250986956097,0.256187231366367,-0.0859517850523246,-0.1535656587083941,0.1265599126598255,0.0842021440656806,-0.3694502302122348,-0.1448223585433462,-0.2251274888211769,-0.1042201379673712,0.1209073508538056,1.3969295577985146,0.3167985842160454,0.141131228837303,0.0573216699799953,0.0290650395030659,-0.4579073031127536,1,normal_operation,0.10529978055104405,weak_normal,2025-04-03 00:47:01.018787
1.5316905120849609,1.0715809482013978,3.6104561035156246,0.21068974609375,1.5035586425781249,0.6015431671142577,2.063203280639648,1.4616601135253904,12.253524096679689,27.95489242687437,-0.0389258181595813,-0.5227880839311472,-0.2347413195197355,0.2721605003945213,-0.1625064376831055,1.1666270809943051,2.4875755249023435,-1.2617442749023438,-0.5662286926269531,-1.0366893188476565,0.2070984436035155,1.243787762451172,7.71172354736328,11.099416707181977,-0.0558839922328369,-0.5620552256427727,-0.1936611936074039,0.3223165701343012,9.82610288848877,1.2615940249751845,11.954248889160157,7.826645227050781,9.99100352783203,9.02793591003418,10.550049615478516,1.5221137054443383,78.60882310791015,785.1513396721634,0.2368582264473952,-0.6003125671234729,-0.4092408140762885,0.0974783492773359,-0.1479699466027635,0.1335774408044845,0.0957932619987727,-0.3273491581793945,-0.1777970905943841,-0.2479766465858355,-0.0613862941111745,0.186590352474661,1.3753460968196536,0.3179043023160019,0.2599696382289667,-0.255167197215726,-0.3070122550094362,-0.1114114397735821,0.0156879785818574,0.1310808164736566,0.2311562024587909,-0.2194318532850886,0.005795558966546,-0.0599207504644617,0.1153782543684801,0.1752990048329418,0.8342940287014112,0.1394263449550822,0.0661521267464937,0.3240726607635195,-0.2437645321236485,-0.2478425904062656,0.0391200230241858,0.1729947883469467,0.398894334387101,-0.1709356817029561,0.0406355283861275,-0.1176098776487018,0.1020218224973021,0.2196317001460039,1.1267366018409193,0.2516605839729419,0.2587503810247801,0.0663327338355018,-0.1706875390413993,-0.0364654303171141,1,normal_operation,0.8222985018625963,strong_normal,2025-04-03 00:47:01.018787
1.6349404586791991,0.8589650485039485,2.9544448486328125,0.21068974609375,1.8926164123535156,1.0348936676025389,2.0739771881103515,1.0390835205078126,13.079523669433591,27.28681006382033,0.0338697216126651,-0.3409812695600638,-0.1419621816203347,0.2056391616805864,0.5141548065185546,1.2184479847575913,2.4875755249023435,-1.2617442749023438,0.4022258789062499,-0.5063736511230469,1.4903905334472654,1.996764184570312,8.791508496093748,13.991765253007742,0.1741161653029454,-0.5877047059905195,-0.5020780691087761,0.1569498864725305,9.421482807922365,1.5157908145493026,11.901576452636718,7.410054138183593,9.315838659667968,8.24144066467285,10.550049615478516,2.308608950805666,75.3718624633789,728.4956807475896,0.2763013618129853,-0.4833305526248749,-0.5290572940289285,-0.0118698503699477,-0.1311994641909477,0.1381358816624527,0.0957932619987727,-0.3273491581793945,-0.1372281778285617,-0.2420478563786792,-0.0142890505554497,0.2277588058232295,1.2411822375251274,0.2903585696532393,0.2661305221097184,-0.3037949530395851,-0.3452701628673851,-0.4149758957991067,-0.1044033309232103,0.0794902159295551,0.0037304747370871,-0.2194318532850886,-0.1084502298567468,-0.1595444106307792,-0.0399693721830761,0.119575038447703,0.8426875968598572,0.1377499994911094,-0.2778968261371003,0.0078775511995668,-0.5788922864037345,0.2453410835444816,0.1226560108868152,0.138767755400487,0.398894334387101,0.0047963246619691,0.048762634063353,0.0176531393808586,0.1896879788188493,0.1720348394379907,0.9812480870945216,0.2744078955644475,0.0769311685395722,0.0332129119135519,-0.3982927692978189,-0.3012990185590314,1,normal_operation,0.3317432733733794,weak_normal,2025-04-03 00:47:01.018787
0.5958569381713867,1.9173345694435424,2.9544448486328125,-3.794809631347656,0.7733271362304687,0.1855506286621093,1.964442462158203,1.7788918334960937,12.71081661376953,32.249738735601866,0.0929450607182132,0.1458540035106826,0.0222268265135747,-0.3710322000015641,0.3043628860473633,1.6784384365786909,3.1124621582031247,-2.482787121582031,0.1448492004394531,-0.6482300994873046,1.4903905334472654,2.13862063293457,11.609483850097655,23.278338814302405,0.1411244556135152,0.0299613378811221,-0.5292587815350566,-0.311027774405077,10.059537550354005,2.1237557078360325,14.592659118652342,7.410054138183593,9.63307037963867,8.605957867431641,10.648211883544922,2.042254016113281,80.47630040283204,845.6370722683869,0.1671951247652233,-0.1378284804671074,-0.1307594236995927,-0.3581975305842262,-0.1762149696121374,0.1681677912663933,0.0402358346642967,-0.5321255749973551,-0.1372281778285617,-0.2509410416894136,-0.0802385146575255,0.1707025270318881,1.4901914262256926,0.47465697227859,-0.410675691096888,0.0470509569452529,-0.0305669742813433,-0.1045862685526016,-0.1495021058697814,0.1293583487173057,-0.0027978560528153,-0.4553843804058487,-0.1325650844072028,-0.1595444106307792,-0.0689471670158065,0.0905972436149727,1.1960168469582513,0.3126756963389392,-0.1424013029795923,-0.0587665832052324,0.013192602073268,-0.3310334988556477,0.0790893952072621,0.1884799355557878,0.4592480863835461,-0.1600107199729152,0.0242480857910662,-0.016254211354451,0.1235386678558581,0.1397928792103091,1.11154824041135,0.3342385483309152,-0.1821621228734121,-0.1960325441999844,0.0296104720521286,-0.0283396035082751,1,normal_operation,1.1961030085955908,strong_normal,2025-04-03 00:47:01.018787
-0.048482583618164,1.4564888974942831,0.9624690673828123,-3.794809631347656,0.3794809631347656,0.1855506286621093,0.709880792236328,0.5243301635742187,7.556100439453124,16.989683755507237,-0.3932740346917022,0.0481840974943943,-0.1084248484650942,-0.1116435349807464,0.0410007034301758,3.568646811270688,7.630320690917968,-4.656722229003906,-0.815225665283203,-2.186504666137695,1.1103110198974608,3.296815686035156,22.043414685058593,101.89536897019376,-0.1662464108394068,-0.0888710328677092,-0.2039643321422158,-0.2338701511883976,9.25747999420166,2.307475411117303,14.592659118652342,6.0142345703124995,9.02135185546875,8.188768228149414,9.547477670288083,1.3587094421386716,74.05983995361328,728.2030289276395,-0.2461717296180024,-0.2665243713452443,0.1381929416563808,-0.1139481179782959,-0.3638378642015278,0.2743709825257136,0.0402358346642967,-0.7030612567003113,-0.3849716697433293,-0.620724350003174,-0.1071512252607968,0.5135731247423772,2.991174582940816,1.661259419830839,0.0130466759550257,-0.0825523081422636,0.2614729721097996,-0.1978047863517705,-0.0980082313739182,0.1666092080471032,0.1131133232781057,-0.4553843804058487,-0.0626186830868194,-0.1554142421718614,0.0207174579148945,0.1761317000867559,1.0971592664254428,0.2989139329850113,-0.5475632841947761,0.2592474271007078,-0.0379051806751931,-0.2077536089561965,-0.1350964779787977,0.6183275979236937,0.6042036761675026,-1.5863843819462962,-0.1197082696883133,-0.1804284075964367,0.1652733539770202,0.3457017615734569,3.3422389019488357,3.2046406137308865,-0.6414755239619816,0.1603019093859798,0.0396787315257755,-0.0983485324635334,-1,potential_anomaly,-3.3787543003427345e-06,borderline,2025-04-03 00:47:01.018787
-0.3965396499633788,1.7110741933456874,1.5322890625,-3.3351229125976563,0.3794809631347656,-1.2419921112060548,0.709880792236328,1.951872903442383,10.867281335449215,24.680148713013395,0.329107971493785,-0.3518498013572993,-0.3554188791740825,-0.171022253605241,0.0978629928588867,3.5314022908564056,7.630320690917968,-4.656722229003906,0.4034229797363281,-2.4289175842285156,1.1611878051757811,3.5901053894042967,21.17671368408203,99.84303444189736,-0.4435848156458525,0.06709590403989,-0.146645429326155,0.0416930477516736,9.048585899353029,1.6346388547998782,11.812990991210937,6.0142345703124995,9.124302526855468,8.188768228149414,9.913191973876952,1.7244237457275382,72.38868719482421,676.391607708735,0.2455847789382349,-1.2712279565856587e-05,0.1194099070439904,-0.3787297467911676,-0.2392666542309402,0.3408169746483665,0.1883889742228994,-0.7030612567003113,-0.1416248087687001,-0.620724350003174,0.0664823890645168,0.6872067390676908,2.5914808611100537,1.3872379362826688,0.1454940688372483,-0.0734173543593644,0.0764968235828555,-0.2377713875302887,-0.1168437980151929,0.1954158293116075,0.1131133232781057,-0.4463246560443514,-0.0287113323515097,-0.266029479688525,0.0272790965149495,0.2933085762034744,1.323785606703485,0.4147185558412682,0.0679761580212069,-0.4119510405532575,-0.0671947233608581,0.0130430270741631,-0.1295840353985484,0.6206537302023977,0.6042036761675026,-1.5863843819462962,0.0003996937218307,-0.2457117154954612,0.239083461275101,0.4847951767705623,3.5670000048583343,3.2160246003545816,-0.3080229277300109,-0.0026436356233936,0.0776730553546413,-0.0540722231666282,1,normal_operation,0.36612580859053034,weak_normal,2025-04-03 00:47:01.018787
0.1759738220214843,2.486814402592865,4.565742565917969,-3.3351229125976563,-0.0311246215820312,-1.2419921112060548,1.7471686614990234,2.989160772705078,15.653290454101562,49.72170127184127,0.2111065042700145,0.2768932475514674,-0.1648997078398922,-0.2373781179309095,-1.1704653366088866,2.2111254178499324,1.4915876342773438,-5.130774157714844,-0.4692635253906249,-2.924517327880859,0.5357026214599608,3.46021994934082,15.176844323730467,50.07251774131994,0.01072821746797,-0.3626234721429215,0.3457101772025954,-0.0452091334738918,7.9667060241699215,5.503817626188069,11.812990991210937,-6.361393811035156,9.683348614501952,8.820238916015624,10.562020623779295,1.741781707763673,76.45643581542967,750.0833067030703,-0.1886398299054995,-0.0755192913924466,0.0321433618164556,-0.185759247789729,0.0741764932097589,0.1547616888082589,0.3314793266383123,-0.1746661564400432,0.0832029097611036,0.0100922664762267,0.164906968065342,0.1548147015891153,1.208940277297446,0.2356266597414544,-0.0119989019001293,-0.4415629365192479,-0.3759642013513201,0.1792760016843677,0.0431835758627986,0.562930601816721,1.4266401244546016,-0.4463246560443514,-0.0836692191032395,-0.3477668458029159,0.0808047474301191,0.428571593233035,3.0023660071520775,2.5500454694882713,-0.1842930624367089,0.1469052474607735,-0.0158828952198484,-0.1979938364253761,0.0813709802027127,0.4311296800920091,0.6729509963223939,-0.7995206749021352,0.2004464014981273,-0.0737434916777756,0.3037339207812269,0.3774774124590025,2.90950383244673,1.5399522998031068,-0.7623586499910068,0.4653960414521744,-0.1955302213931498,0.0072562553645132,1,normal_operation,3.5133215174898424e-06,weak_normal,2025-04-03 00:47:01.018787
3.633425475692749,6.2750983431531075,19.61270144958496,-1.3383587280273437,1.9488801513671872,0.0047884033203124,2.9352912353515626,2.9305028320312503,31.95002260437012,420.6291192292476,-0.0340454846335105,0.0426894702896598,-0.2257508784606025,0.0080062899827496,-1.222539222717285,1.7179005618266436,0.4477157104492187,-5.130774157714844,-0.507570751953125,-1.3623007446289062,-0.3058592620849609,1.0564414825439452,10.675745202636715,35.56627593125185,0.1748635581526944,-0.0834892162913219,-0.193080270871551,-0.2682470997287248,5.7529673141479485,6.50413110592049,10.96783780517578,-6.361393811035156,9.011775048828124,5.269039303588866,9.649829791259764,4.380790487670898,67.69126353759765,603.2028348852572,-0.3192013326183588,-0.0194857622231065,-0.1296070877971857,-0.0847833052238732,-0.0242813936012188,0.2180979614482438,0.3314793266383123,-0.3699831551746758,-0.0295773354154764,-0.1904207506422057,0.1368950997270361,0.3273158503692418,1.579589588675173,0.3852504549047756,0.3651770835930473,0.0363097947617533,-0.2242869314758204,-0.3686462207494163,0.1950172284432595,0.5557086215657736,1.4266401244546016,-0.4595145488647666,0.1173101073573288,-0.1521833845870627,0.3013357584502423,0.4535191430373051,3.335843802399544,2.7747503317777813,-0.4823257298474378,0.0732522734521022,-0.0308954639092481,0.0392943970597467,-0.0428504977612729,0.5600909870952948,0.6729509963223939,-1.0546585006707718,0.0258468606783893,-0.2053759574007067,0.3781768764722064,0.5835528338729131,3.380209805522758,2.524304631870164,-0.5029351003120116,0.1353320789730206,-0.0274429239001954,0.0675350105444032,-1,potential_anomaly,-0.0002676323886687815,borderline,2025-04-03 00:47:01.018787
4.114660009384155,7.780086920808678,19.61270144958496,-3.189076611328125,1.9488801513671872,-1.706467233276367,5.470750793457031,7.1772180267333985,47.59373625183106,619.6814359053077,0.1825058341666229,-0.2524196810704968,-0.381940221399599,-0.2948021091325596,0.3223193984985351,0.9416283861213056,2.1547814941406247,-0.622492431640625,0.0263362182617187,-0.4872200378417968,0.9917980377197264,1.4790180755615232,6.643909606933593,7.924430497582979,-0.4078706748626889,0.0494995554870454,0.3191908707615329,-0.3619060226580895,6.337451794433594,5.203284928375344,10.366893188476562,-4.472368701171875,8.949525805664063,5.965751986694336,9.540295065307616,3.5745430786132797,60.40091948242188,537.8997543410206,0.163570292379782,-0.3628529196057226,-0.3409060955222464,-0.1834040238212793,-0.186240620468059,0.1763110405953377,0.1301669220762183,-0.4411286376605515,-0.1919196020990711,-0.326616386356038,-0.061885911263463,0.2647304750925751,1.7502588078969086,0.5261692139851075,-0.3790985710959126,-0.2288516554442776,0.2559624360870938,-0.2502603393616314,0.0457149694343934,0.2831398844715193,0.5774241968048416,-0.4595145488647666,0.1062519143866776,-0.1273690660234029,0.1489858348124167,0.2763549008358196,1.8443200637677484,0.658064420871463,-0.4172867674475145,-0.2017804630874857,0.232580908497975,-0.2249255145274758,-0.2563035991239764,0.5171757804347259,0.3593246559258555,-1.161909649362027,-0.0441661562622992,-0.4425275656869591,0.0534590352948644,0.4959866009818237,3.036339973507692,2.6652985823373747,0.1444950325657831,-0.3124523422570419,-0.3202353113858348,-0.2304465511253914,-1,potential_anomaly,-0.10873411263514599,borderline,2025-04-03 00:47:01.018787
2.2700024490356445,5.014607572595275,14.176068029785156,-3.189076611328125,1.7082628845214844,-0.0903811126708984,2.722207287597656,2.812588400268554,30.15975831298828,242.3936018060616,-0.3649592045016191,0.1982043556322631,-0.3237050275930871,0.1137140551304964,-0.0706289489746093,2.2559164248779715,3.4261025756835934,-3.9312791259765625,0.1783680236816406,-1.7417817077636717,1.3108254089355469,3.0526071166992184,15.7442701171875,40.75317891573973,0.1408794287238083,0.1294217544843728,-0.4130837653610236,0.0730456959566938,7.442675135803222,3.101042954460005,10.366893188476562,-0.3782838623046874,8.276755139160155,7.703343841552734,8.780136038208006,1.0767921966552718,60.297968811035155,520.0790446600764,-0.2588069916059661,0.0509383948765945,-0.2052033937416638,0.1127962267125377,-0.1957999619818447,0.1224832108945951,-0.0456983155293171,-0.4411286376605515,-0.1774640124928585,-0.2455118686345458,-0.1082503829958314,0.1372614856387144,1.566399695854758,0.4267180965051336,-0.771091096966297,0.4572494067580635,-0.2450573501869413,0.0220315879897197,-0.0042633996995281,0.1150061916163608,0.1746661564400432,-0.1649402758754946,-0.0075941807147844,-0.1154115621786326,0.093328484047483,0.2087400462261156,0.7900612568188069,0.1059568054967763,-0.5933657953610594,0.5458916734999539,-0.5352374494549254,0.2233308885599368,-0.2285915010770436,0.3792022069459399,0.0935283309083984,-1.161909649362027,-0.0941944871114496,-0.2693602607037813,-0.0057289433462409,0.2636313173575404,2.1242389002898925,1.56838710493862,-0.1427556650342079,0.1655162670619551,-0.2704783863028864,0.2002813484527184,1,normal_operation,0.07958205631245585,weak_normal,2025-04-03 00:47:01.018787
1.6977882522583003,0.6972302446892626,3.181894006347656,0.8164227661132812,1.5574281799316405,1.322796417236328,2.0027496887207032,0.6799532714843752,13.582306018066404,26.948919708925956,-0.4124767923953676,0.0470841465322216,0.012748015297259,-0.1179106606021512,0.2624643569946289,2.334993558167912,3.4261025756835934,-3.9312791259765625,1.151610998535156,-1.7417817077636717,1.7980454467773437,3.5398271545410154,17.164031701660157,44.16865964302599,0.0459690085182397,-0.0835741049664989,-0.5202395505535582,-0.0459493551298411,8.659228854370117,1.1317971106117268,10.405200415039062,7.053318090820312,8.51018980102539,7.825448126220703,9.360729940795895,1.5352818145751943,69.27383083496093,610.1056724155605,0.0880068989126248,-0.0182516890687183,0.1434569755594404,-0.1983012962415509,-0.1799787521593771,0.1970037947114415,0.0691470138767219,-0.600739663911636,-0.1774640124928585,-0.2346535225248101,-0.0762748852493704,0.1583786372754396,1.6993644739837916,0.5696227708764343,-0.5017788328688898,0.3760784462074866,-0.3477283573775493,-0.0627158410116526,-8.326952538139677e-05,0.098381076206206,0.1490857582428744,-0.1293675346325568,-0.0075941807147844,-0.0884322359550561,0.090197549893142,0.1786297858481981,0.6804119457965678,0.0774307447144414,-0.2383069626641724,-0.5050326270872322,0.427995350834569,0.0235689616749246,-0.2552210952940181,0.2271764062726765,0.0542251149283734,-0.7146523746334033,-0.2672618686641698,-0.3542951765928184,-0.0869666923083433,0.267328484284475,2.1502189922088917,0.9339754164003714,0.3338703556969883,0.0542813990602278,-0.3163701454756431,-0.2994520825896588,1,normal_operation,0.3688135449512804,weak_normal,2025-04-03 00:47:01.018787
